onset	duration	trial_type	correct_response	accuracy	response_time	stimulus	position
2.021	1.799	no_response	n/a	1.0	n/a	v	TR
3.82	2.013	1-back	0.0	1.0	0.766	p	TL
5.833	2.012	1-back	0.0	0.0	n/a	z	BL
7.845	2.013	1-back	1.0	1.0	0.743	c	BL
9.858	2.012	1-back	0.0	1.0	0.503	t	TR
11.87	2.013	1-back	0.0	1.0	0.53	l	TL
13.883	2.013	1-back	1.0	1.0	0.542	c	TL
15.896	2.012	1-back	0.0	1.0	0.664	v	BL
17.908	2.013	1-back	0.0	1.0	0.446	n	BR
19.921	2.012	1-back	1.0	1.0	0.407	l	BR
21.933	2.013	1-back	0.0	1.0	0.63	v	TL
23.946	2.012	1-back	0.0	1.0	0.505	c	BR
25.958	2.013	1-back	0.0	1.0	0.618	r	TR
27.971	2.012	1-back	1.0	1.0	0.35	t	TR
29.983	2.013	1-back	0.0	1.0	0.375	n	BL
31.996	2.013	1-back	1.0	1.0	0.641	s	BL
34.009	2.012	1-back	0.0	1.0	0.524	v	TR
36.021	2.013	1-back	0.0	1.0	0.483	p	TL
38.034	2.012	1-back	1.0	1.0	0.665	c	TL
40.046	2.013	1-back	0.0	1.0	0.446	g	TR
42.059	2.012	1-back	1.0	1.0	0.479	z	TR
44.071	2.013	1-back	0.0	1.0	0.553	x	BR
46.084	2.012	1-back	0.0	1.0	0.527	g	BL
48.096	2.013	1-back	0.0	0.0	0.57	l	TL
50.109	2.013	1-back	0.0	1.0	0.629	r	BL
52.122	2.012	1-back	1.0	1.0	0.451	x	BL
54.134	2.013	1-back	0.0	1.0	0.502	f	BR
56.147	2.012	1-back	0.0	1.0	0.505	z	TR
58.159	2.013	1-back	1.0	1.0	0.35	r	TR
60.172	2.012	1-back	0.0	1.0	0.489	f	BL
62.184	2.013	1-back	1.0	1.0	0.555	n	BL
64.197	2.013	1-back	0.0	1.0	0.391	x	TR
66.21	2.012	1-back	1.0	1.0	0.539	t	TR
68.222	2.013	1-back	0.0	1.0	0.425	p	BR
70.235	2.012	1-back	1.0	1.0	0.528	x	BR
72.247	2.013	1-back	0.0	1.0	0.366	t	TL
74.26	2.012	1-back	1.0	1.0	0.678	s	TL
76.272	2.013	1-back	0.0	1.0	0.682	f	BL
78.285	2.012	1-back	0.0	1.0	0.739	l	BR
80.297	2.013	1-back	1.0	1.0	0.427	g	BR
82.31	2.013	1-back	0.0	1.0	0.403	n	TL
84.323	2.012	1-back	0.0	1.0	0.427	s	TR
86.335	2.013	1-back	0.0	1.0	0.42	p	BR
88.348	2.012	1-back	0.0	1.0	0.486	r	TL
90.36	2.013	1-back	1.0	1.0	0.597	s	TL
92.373	2.012	1-back	0.0	1.0	0.449	g	BR
94.385	2.013	1-back	1.0	1.0	0.643	z	BR
96.398	6.051	1-back	0.0	1.0	0.423	f	BL
102.449	2.039	baseline	n/a	1.0	n/a	blackcross.bmp	n/a
104.488	2.039	baseline	1.0	1.0	0.345	redcross.bmp	n/a
106.527	2.039	baseline	n/a	1.0	n/a	blackcross.bmp	n/a
108.566	2.04	baseline	1.0	1.0	0.427	redcross.bmp	n/a
110.606	2.039	baseline	n/a	1.0	n/a	blackcross.bmp	n/a
112.645	2.039	baseline	n/a	1.0	n/a	blackcross.bmp	n/a
114.684	2.039	baseline	1.0	1.0	0.376	redcross.bmp	n/a
116.723	2.039	baseline	n/a	1.0	n/a	blackcross.bmp	n/a
118.762	2.04	baseline	n/a	1.0	n/a	blackcross.bmp	n/a
120.802	2.039	baseline	n/a	1.0	n/a	blackcross.bmp	n/a
122.841	2.039	baseline	1.0	1.0	0.312	redcross.bmp	n/a
124.88	6.038	baseline	n/a	1.0	n/a	blackcross.bmp	n/a
130.918	1.799	no_response	n/a	1.0	n/a	c	BL
132.717	1.8	no_response	n/a	1.0	n/a	p	BR
134.517	2.012	2-back	1.0	1.0	0.492	n	BL
136.529	2.013	2-back	0.0	1.0	0.652	x	TR
138.542	2.012	2-back	0.0	1.0	0.603	g	TL
140.554	2.013	2-back	1.0	1.0	0.363	p	TR
142.567	2.012	2-back	1.0	1.0	0.658	c	TL
144.579	2.013	2-back	0.0	1.0	0.561	x	BL
146.592	2.013	2-back	1.0	1.0	0.562	l	TL
148.605	2.012	2-back	0.0	1.0	0.732	v	TR
150.617	2.013	2-back	0.0	1.0	0.857	g	TR
152.63	2.012	2-back	0.0	1.0	0.707	t	BR
154.642	2.013	2-back	0.0	1.0	0.739	z	BL
156.655	2.012	2-back	1.0	1.0	0.555	n	BR
158.667	2.013	2-back	0.0	1.0	0.57	f	TL
160.68	2.012	2-back	0.0	1.0	0.75	n	TR
162.692	2.013	2-back	1.0	1.0	0.79	t	TL
164.705	2.012	2-back	0.0	1.0	0.649	v	BL
166.717	2.013	2-back	1.0	1.0	0.603	l	TL
168.73	2.013	2-back	0.0	1.0	0.853	r	TL
170.743	2.012	2-back	0.0	1.0	0.661	s	BR
172.755	2.013	2-back	0.0	1.0	0.626	v	BL
174.768	2.012	2-back	1.0	1.0	0.585	n	BR
176.78	2.013	2-back	0.0	1.0	0.493	p	TL
178.793	2.012	2-back	0.0	1.0	0.702	s	TR
180.805	2.013	2-back	0.0	1.0	0.736	g	BR
182.818	2.012	2-back	0.0	1.0	0.674	p	BL
184.83	2.013	2-back	1.0	1.0	0.682	f	BR
186.843	2.013	2-back	0.0	1.0	0.678	r	TR
188.856	2.012	2-back	0.0	1.0	0.938	s	BL
190.868	2.013	2-back	1.0	1.0	0.611	z	TR
192.881	2.012	2-back	1.0	0.0	0.687	x	BL
194.893	2.013	2-back	0.0	1.0	0.947	c	TL
196.906	2.012	2-back	0.0	0.0	0.575	r	TR
198.918	2.013	2-back	0.0	1.0	0.698	v	BR
200.931	2.013	2-back	0.0	1.0	0.843	l	TL
202.944	2.012	2-back	1.0	1.0	0.499	c	BR
204.956	2.013	2-back	0.0	1.0	0.641	s	TR
206.969	2.012	2-back	1.0	1.0	0.741	t	BR
208.981	2.013	2-back	0.0	1.0	0.653	r	BL
210.994	2.012	2-back	0.0	1.0	0.676	f	TL
213.006	2.013	2-back	1.0	1.0	0.834	z	BL
215.019	2.012	2-back	0.0	1.0	0.707	l	TR
217.031	2.013	2-back	0.0	1.0	0.878	x	TL
219.044	2.013	2-back	1.0	1.0	0.63	f	TR
221.057	2.012	2-back	0.0	1.0	0.677	g	BR
223.069	2.013	2-back	0.0	1.0	0.535	t	BL
225.082	6.05	2-back	1.0	1.0	0.492	z	BR
231.132	2.04	baseline	n/a	1.0	n/a	blackcross.bmp	n/a
233.172	2.039	baseline	1.0	1.0	0.428	redcross.bmp	n/a
235.211	2.039	baseline	n/a	1.0	n/a	blackcross.bmp	n/a
237.25	2.039	baseline	1.0	1.0	0.338	redcross.bmp	n/a
239.289	2.04	baseline	n/a	1.0	n/a	blackcross.bmp	n/a
241.329	2.039	baseline	n/a	1.0	n/a	blackcross.bmp	n/a
243.368	2.039	baseline	n/a	1.0	n/a	blackcross.bmp	n/a
245.407	2.039	baseline	n/a	1.0	n/a	blackcross.bmp	n/a
247.446	2.039	baseline	1.0	1.0	0.333	redcross.bmp	n/a
249.485	2.04	baseline	n/a	1.0	n/a	blackcross.bmp	n/a
251.525	2.039	baseline	n/a	1.0	n/a	blackcross.bmp	n/a
253.564	2.0	baseline	1.0	1.0	0.405	redcross.bmp	n/a
