onset	duration	trial_type	correct_response	accuracy	response_time	stimulus	position
4.015	1.805	no_response	n/a	1.0	n/a	c	TR
5.82	2.006	1-back	0.0	1.0	0.889	g	BL
7.826	2.006	1-back	0.0	1.0	0.934	p	TR
9.832	2.006	1-back	1.0	1.0	0.707	p	BL
11.838	2.006	1-back	0.0	1.0	0.638	t	TL
13.844	2.006	1-back	0.0	1.0	0.706	v	BR
15.85	2.006	1-back	1.0	1.0	0.623	v	TL
17.856	2.006	1-back	0.0	1.0	0.737	s	BL
19.862	2.006	1-back	1.0	1.0	0.604	s	TR
21.868	2.006	1-back	0.0	1.0	0.576	x	BR
23.874	2.006	1-back	0.0	1.0	0.657	n	TL
25.88	2.006	1-back	1.0	1.0	0.526	n	BR
27.886	2.006	1-back	0.0	1.0	0.746	f	TR
29.892	2.006	1-back	1.0	1.0	0.605	f	TL
31.898	2.006	1-back	0.0	1.0	0.601	l	TR
33.904	2.006	1-back	0.0	1.0	0.787	r	BL
35.91	2.006	1-back	0.0	1.0	0.688	z	TR
37.916	2.006	1-back	1.0	1.0	0.535	z	TL
39.922	2.006	1-back	0.0	1.0	0.615	c	TR
41.928	2.006	1-back	1.0	1.0	0.543	c	BL
43.934	2.006	1-back	0.0	1.0	0.775	g	TR
45.94	2.006	1-back	1.0	1.0	0.612	g	BR
47.946	2.006	1-back	0.0	1.0	0.717	x	BL
49.952	2.006	1-back	0.0	1.0	0.684	t	TL
51.958	2.006	1-back	1.0	1.0	0.774	t	BL
53.964	2.006	1-back	0.0	1.0	0.6	r	BR
55.97	2.006	1-back	0.0	1.0	0.827	p	BL
57.976	2.006	1-back	0.0	1.0	0.875	v	TL
59.982	2.007	1-back	0.0	1.0	0.918	s	TR
61.989	2.005	1-back	1.0	1.0	0.64	s	BR
63.994	2.006	1-back	0.0	1.0	0.527	x	BL
66.0	2.006	1-back	1.0	1.0	0.685	x	TL
68.006	2.006	1-back	0.0	1.0	0.527	l	TR
70.012	2.007	1-back	1.0	0.0	n/a	l	BL
72.019	2.006	1-back	0.0	1.0	0.654	n	BR
74.025	2.005	1-back	1.0	1.0	0.674	n	TL
76.03	2.007	1-back	0.0	1.0	0.469	z	BR
78.037	2.006	1-back	1.0	1.0	0.64	z	TL
80.043	2.006	1-back	0.0	1.0	0.552	c	BR
82.049	2.006	1-back	0.0	0.0	n/a	g	BL
84.055	2.006	1-back	0.0	1.0	0.9	p	TL
86.061	2.006	1-back	0.0	1.0	0.807	t	TR
88.067	2.006	1-back	0.0	1.0	0.599	v	BR
90.073	2.006	1-back	0.0	1.0	0.652	f	TL
92.079	2.006	1-back	1.0	1.0	0.633	f	TR
94.085	2.006	1-back	0.0	1.0	0.615	l	BR
96.091	2.006	1-back	0.0	1.0	0.591	r	BL
98.097	6.02	1-back	1.0	1.0	0.906	r	BR
104.117	2.022	baseline	1.0	1.0	0.841	redcross.bmp	n/a
106.139	2.023	baseline	n/a	1.0	n/a	blackcross.bmp	n/a
108.162	2.023	baseline	1.0	1.0	0.921	redcross.bmp	n/a
110.185	2.022	baseline	n/a	1.0	n/a	blackcross.bmp	n/a
112.207	2.023	baseline	n/a	1.0	n/a	blackcross.bmp	n/a
114.23	2.023	baseline	1.0	1.0	0.862	redcross.bmp	n/a
116.253	2.023	baseline	n/a	1.0	n/a	blackcross.bmp	n/a
118.276	2.022	baseline	1.0	1.0	0.898	redcross.bmp	n/a
120.298	2.023	baseline	n/a	1.0	n/a	blackcross.bmp	n/a
122.321	2.023	baseline	n/a	1.0	n/a	blackcross.bmp	n/a
124.344	2.023	baseline	n/a	1.0	n/a	blackcross.bmp	n/a
126.367	6.032	baseline	n/a	1.0	n/a	blackcross.bmp	n/a
132.399	1.806	no_response	n/a	1.0	n/a	r	TR
134.205	1.805	no_response	n/a	1.0	n/a	p	BL
136.01	2.006	2-back	0.0	1.0	0.715	s	BL
138.016	2.006	2-back	1.0	1.0	0.66	p	TR
140.022	2.006	2-back	0.0	1.0	0.591	c	TL
142.028	2.006	2-back	0.0	1.0	0.632	g	TL
144.034	2.006	2-back	1.0	1.0	0.545	c	BL
146.04	2.006	2-back	0.0	1.0	0.73	f	TR
148.046	2.006	2-back	0.0	1.0	0.689	x	TR
150.052	2.006	2-back	0.0	1.0	0.895	z	TL
152.058	2.006	2-back	1.0	1.0	0.658	x	BR
154.064	2.006	2-back	0.0	1.0	0.648	g	BL
156.07	2.006	2-back	0.0	1.0	0.785	v	TL
158.076	2.006	2-back	1.0	1.0	0.806	g	TL
160.082	2.006	2-back	1.0	0.0	1.007	v	TR
162.088	2.006	2-back	0.0	1.0	0.837	z	BR
164.094	2.006	2-back	0.0	1.0	0.925	n	TL
166.1	2.006	2-back	1.0	1.0	0.669	z	TL
168.106	2.006	2-back	0.0	1.0	1.044	s	BL
170.112	2.006	2-back	1.0	1.0	0.991	z	BR
172.118	2.006	2-back	0.0	1.0	0.811	t	TL
174.124	2.006	2-back	0.0	1.0	0.796	f	BL
176.13	2.006	2-back	1.0	1.0	1.035	t	BR
178.136	2.006	2-back	0.0	1.0	0.888	r	BR
180.142	2.006	2-back	0.0	0.0	n/a	c	TR
182.148	2.006	2-back	1.0	1.0	0.687	r	BL
184.154	2.006	2-back	0.0	1.0	0.849	f	BR
186.16	2.006	2-back	0.0	1.0	0.971	t	TR
188.166	2.006	2-back	1.0	1.0	0.717	f	BL
190.172	2.006	2-back	0.0	1.0	1.028	c	BR
192.178	2.006	2-back	0.0	1.0	0.903	l	BR
194.184	2.006	2-back	0.0	1.0	0.943	n	TR
196.19	2.006	2-back	1.0	1.0	0.796	l	TL
198.196	2.006	2-back	0.0	1.0	0.816	s	BR
200.202	2.006	2-back	0.0	1.0	0.916	g	TR
202.208	2.006	2-back	1.0	1.0	0.904	s	TL
204.214	2.006	2-back	0.0	1.0	0.739	l	BL
206.22	2.006	2-back	0.0	1.0	0.926	r	TR
208.226	2.006	2-back	0.0	1.0	0.892	x	BR
210.232	2.006	2-back	0.0	1.0	0.83	t	TL
212.238	2.006	2-back	1.0	1.0	0.815	x	TR
214.244	2.006	2-back	0.0	0.0	1.013	n	BL
216.25	2.006	2-back	0.0	1.0	0.796	p	BR
218.256	2.006	2-back	1.0	1.0	0.833	n	TR
220.262	2.006	2-back	1.0	0.0	0.87	p	BL
222.268	2.006	2-back	0.0	1.0	0.896	v	BL
224.274	2.006	2-back	0.0	1.0	0.829	l	TL
226.28	6.02	2-back	1.0	1.0	0.614	v	BR
232.3	2.023	baseline	n/a	0.0	0.304	blackcross.bmp	n/a
234.323	2.023	baseline	1.0	1.0	0.327	redcross.bmp	n/a
236.346	2.022	baseline	n/a	1.0	n/a	blackcross.bmp	n/a
238.368	2.023	baseline	n/a	1.0	n/a	blackcross.bmp	n/a
240.391	2.023	baseline	n/a	1.0	n/a	blackcross.bmp	n/a
242.414	2.039	baseline	1.0	1.0	0.411	redcross.bmp	n/a
244.453	2.024	baseline	n/a	1.0	n/a	blackcross.bmp	n/a
246.477	2.022	baseline	n/a	1.0	n/a	blackcross.bmp	n/a
248.499	2.039	baseline	1.0	1.0	0.501	redcross.bmp	n/a
250.538	2.023	baseline	1.0	0.0	n/a	redcross.bmp	n/a
252.561	2.023	baseline	n/a	1.0	n/a	blackcross.bmp	n/a
254.584	2.0	baseline	n/a	1.0	n/a	blackcross.bmp	n/a
