onset	duration	trial_type	correct_response	accuracy	response_time	stimulus	position
4.015	1.805	no_response	n/a	1.0	n/a	r	TL
5.82	2.006	1-back	1.0	1.0	0.598	r	TR
7.826	2.006	1-back	0.0	0.0	n/a	g	BR
9.832	2.006	1-back	1.0	0.0	0.447	g	TL
11.838	2.006	1-back	0.0	1.0	1.016	f	TR
13.844	2.006	1-back	0.0	1.0	0.581	t	BL
15.85	2.006	1-back	0.0	1.0	0.619	v	TL
17.856	2.006	1-back	0.0	1.0	0.516	p	TR
19.862	2.006	1-back	1.0	1.0	0.805	p	BL
21.868	2.006	1-back	0.0	1.0	0.504	z	BR
23.874	2.006	1-back	0.0	0.0	0.566	s	TR
25.88	2.006	1-back	1.0	1.0	0.682	s	BL
27.886	2.006	1-back	0.0	1.0	0.492	c	TL
29.892	2.006	1-back	1.0	1.0	0.701	c	BR
31.898	2.006	1-back	0.0	1.0	0.529	l	BR
33.904	2.006	1-back	0.0	1.0	0.593	n	BL
35.91	2.006	1-back	0.0	0.0	0.527	v	TL
37.916	2.006	1-back	1.0	1.0	0.631	v	TR
39.922	2.006	1-back	0.0	1.0	0.517	z	BR
41.928	2.006	1-back	0.0	1.0	0.477	s	TL
43.934	2.006	1-back	0.0	1.0	0.667	x	TR
45.94	2.006	1-back	1.0	1.0	0.579	x	BL
47.946	2.006	1-back	1.0	1.0	0.739	x	BR
49.952	2.006	1-back	0.0	1.0	0.542	v	TR
51.958	2.006	1-back	0.0	1.0	0.564	z	TL
53.964	2.006	1-back	1.0	1.0	0.685	z	BR
55.97	2.006	1-back	0.0	1.0	0.456	f	BL
57.976	2.006	1-back	0.0	1.0	0.522	r	TR
59.982	2.006	1-back	1.0	1.0	0.627	r	BL
61.988	2.006	1-back	0.0	1.0	0.59	n	TL
63.994	2.006	1-back	0.0	1.0	0.607	l	BL
66.0	2.006	1-back	1.0	0.0	0.736	l	BR
68.006	2.007	1-back	0.0	1.0	0.782	s	TL
70.013	2.005	1-back	0.0	1.0	0.669	g	TR
72.018	2.006	1-back	0.0	1.0	0.567	c	BL
74.024	2.007	1-back	1.0	1.0	0.615	c	TR
76.031	2.006	1-back	0.0	1.0	0.873	f	BR
78.037	2.006	1-back	1.0	1.0	0.688	f	TL
80.043	2.006	1-back	0.0	1.0	0.953	t	TR
82.049	2.006	1-back	0.0	1.0	0.552	x	BL
84.055	2.006	1-back	0.0	1.0	0.459	p	TL
86.061	2.006	1-back	1.0	1.0	0.417	p	BL
88.067	2.006	1-back	0.0	1.0	0.617	n	BR
90.073	2.006	1-back	1.0	1.0	0.589	n	TL
92.079	2.006	1-back	0.0	1.0	0.66	g	BR
94.085	2.006	1-back	0.0	1.0	0.581	l	BL
96.091	2.006	1-back	0.0	1.0	0.698	t	TR
98.097	6.02	1-back	1.0	1.0	0.714	t	BR
104.117	2.022	baseline	1.0	1.0	0.501	redcross.bmp	n/a
106.139	2.023	baseline	n/a	1.0	n/a	blackcross.bmp	n/a
108.162	2.023	baseline	1.0	1.0	0.372	redcross.bmp	n/a
110.185	2.022	baseline	n/a	1.0	n/a	blackcross.bmp	n/a
112.207	2.023	baseline	n/a	1.0	n/a	blackcross.bmp	n/a
114.23	2.023	baseline	n/a	1.0	n/a	blackcross.bmp	n/a
116.253	2.023	baseline	1.0	1.0	0.427	redcross.bmp	n/a
118.276	2.022	baseline	n/a	1.0	n/a	blackcross.bmp	n/a
120.298	2.023	baseline	n/a	1.0	n/a	blackcross.bmp	n/a
122.321	2.023	baseline	n/a	1.0	n/a	blackcross.bmp	n/a
124.344	2.023	baseline	1.0	1.0	0.358	redcross.bmp	n/a
126.367	6.032	baseline	n/a	1.0	n/a	blackcross.bmp	n/a
132.399	1.806	no_response	n/a	1.0	n/a	v	TR
134.205	1.805	no_response	n/a	1.0	n/a	r	BR
136.01	2.006	2-back	1.0	1.0	0.555	v	TL
138.016	2.006	2-back	0.0	1.0	0.439	g	TR
140.022	2.006	2-back	0.0	1.0	0.905	p	BL
142.028	2.006	2-back	1.0	1.0	0.556	g	BR
144.034	2.006	2-back	0.0	1.0	0.758	n	TL
146.04	2.006	2-back	0.0	1.0	0.666	x	TR
148.046	2.006	2-back	0.0	1.0	0.684	l	BR
150.052	2.006	2-back	0.0	1.0	0.611	c	TL
152.058	2.006	2-back	1.0	0.0	0.946	l	BL
154.064	2.006	2-back	1.0	1.0	0.978	c	TR
156.07	2.006	2-back	0.0	1.0	0.671	t	BR
158.076	2.006	2-back	0.0	1.0	0.704	n	TL
160.082	2.006	2-back	1.0	1.0	0.561	t	BR
162.088	2.006	2-back	0.0	1.0	1.019	f	TR
164.094	2.006	2-back	0.0	1.0	0.715	n	BR
166.1	2.006	2-back	0.0	1.0	0.811	x	TL
168.106	2.006	2-back	1.0	1.0	0.739	n	BL
170.112	2.006	2-back	0.0	1.0	0.561	r	TR
172.118	2.006	2-back	0.0	1.0	0.62	f	TL
174.124	2.006	2-back	1.0	1.0	0.563	r	BR
176.13	2.006	2-back	0.0	1.0	0.602	s	TR
178.136	2.006	2-back	0.0	1.0	0.67	v	BL
180.142	2.006	2-back	0.0	1.0	0.756	p	TL
182.148	2.006	2-back	1.0	1.0	0.545	v	TR
184.154	2.006	2-back	0.0	1.0	0.49	s	BL
186.16	2.006	2-back	0.0	0.0	0.699	p	BR
188.166	2.006	2-back	1.0	1.0	0.592	s	TR
190.172	2.006	2-back	0.0	1.0	0.522	g	BL
192.178	2.006	2-back	0.0	1.0	0.546	z	TL
194.184	2.006	2-back	0.0	1.0	0.756	r	BR
196.19	2.006	2-back	1.0	1.0	0.84	z	BL
198.196	2.006	2-back	0.0	1.0	0.558	c	BL
200.202	2.006	2-back	0.0	1.0	0.687	t	BR
202.208	2.006	2-back	1.0	1.0	0.723	c	TL
204.214	2.006	2-back	1.0	0.0	0.505	t	BL
206.22	2.006	2-back	0.0	1.0	0.709	s	BR
208.226	2.006	2-back	0.0	1.0	0.714	x	BL
210.232	2.006	2-back	0.0	1.0	0.601	f	TR
212.238	2.006	2-back	1.0	1.0	0.561	x	TR
214.244	2.006	2-back	1.0	1.0	0.907	f	BR
216.25	2.006	2-back	0.0	1.0	0.477	l	TL
218.256	2.006	2-back	0.0	1.0	0.62	p	BL
220.262	2.006	2-back	1.0	1.0	0.715	l	BL
222.268	2.006	2-back	0.0	1.0	0.456	z	TL
224.274	2.006	2-back	0.0	1.0	0.866	g	TL
226.28	6.02	2-back	1.0	1.0	0.784	z	TR
232.3	2.023	baseline	n/a	1.0	n/a	blackcross.bmp	n/a
234.323	2.023	baseline	1.0	1.0	0.444	redcross.bmp	n/a
236.346	2.039	baseline	n/a	1.0	n/a	blackcross.bmp	n/a
238.385	2.023	baseline	n/a	1.0	n/a	blackcross.bmp	n/a
240.408	2.023	baseline	n/a	1.0	n/a	blackcross.bmp	n/a
242.431	2.022	baseline	1.0	1.0	0.406	redcross.bmp	n/a
244.453	2.023	baseline	n/a	1.0	n/a	blackcross.bmp	n/a
246.476	2.023	baseline	n/a	1.0	n/a	blackcross.bmp	n/a
248.499	2.023	baseline	n/a	1.0	n/a	blackcross.bmp	n/a
250.522	2.022	baseline	n/a	1.0	n/a	blackcross.bmp	n/a
252.544	2.023	baseline	1.0	1.0	0.554	redcross.bmp	n/a
254.567	2.0	baseline	1.0	1.0	0.991	redcross.bmp	n/a
