onset	duration	trial_type	correct_response	accuracy	response_time	stimulus	position
4.014	1.806	no_response	n/a	1.0	n/a	r	TR
5.82	1.805	no_response	n/a	1.0	n/a	p	BL
7.625	2.006	2-back	0.0	1.0	0.675	s	BL
9.631	2.006	2-back	1.0	1.0	0.804	p	TR
11.637	2.006	2-back	0.0	1.0	0.568	c	TL
13.643	2.006	2-back	0.0	1.0	0.751	g	TL
15.649	2.006	2-back	1.0	1.0	0.678	c	BL
17.655	2.006	2-back	0.0	1.0	0.734	f	TR
19.661	2.006	2-back	0.0	1.0	0.542	x	TR
21.667	2.006	2-back	0.0	1.0	0.823	z	TL
23.673	2.006	2-back	1.0	1.0	0.792	x	BR
25.679	2.006	2-back	0.0	1.0	0.828	g	BL
27.685	2.006	2-back	0.0	1.0	0.469	v	TL
29.691	2.006	2-back	1.0	1.0	0.654	g	TL
31.697	2.006	2-back	1.0	1.0	0.791	v	TR
33.703	2.006	2-back	0.0	1.0	0.744	z	BR
35.709	2.006	2-back	0.0	1.0	0.751	n	TL
37.715	2.006	2-back	1.0	1.0	0.586	z	TL
39.721	2.006	2-back	0.0	1.0	0.556	s	BL
41.727	2.006	2-back	1.0	1.0	0.551	z	BR
43.733	2.006	2-back	0.0	1.0	0.631	t	TL
45.739	2.006	2-back	0.0	1.0	0.708	f	BL
47.745	2.006	2-back	1.0	1.0	0.613	t	BR
49.751	2.006	2-back	0.0	1.0	0.718	r	BR
51.757	2.006	2-back	0.0	1.0	0.516	c	TR
53.763	2.006	2-back	1.0	0.0	0.76	r	BL
55.769	2.006	2-back	0.0	1.0	0.575	f	BR
57.775	2.006	2-back	0.0	1.0	0.602	t	TR
59.781	2.006	2-back	1.0	1.0	0.508	f	BL
61.787	2.006	2-back	0.0	1.0	0.462	c	BR
63.793	2.006	2-back	0.0	1.0	0.529	l	BR
65.799	2.006	2-back	0.0	1.0	0.612	n	TR
67.805	2.006	2-back	1.0	1.0	0.809	l	TL
69.811	2.007	2-back	0.0	1.0	0.521	s	BR
71.818	2.006	2-back	0.0	1.0	0.585	g	TR
73.824	2.006	2-back	1.0	1.0	0.399	s	TL
75.83	2.006	2-back	0.0	1.0	0.552	l	BL
77.836	2.006	2-back	0.0	1.0	0.516	r	TR
79.842	2.006	2-back	0.0	1.0	0.588	x	BR
81.848	2.006	2-back	0.0	1.0	0.532	t	TL
83.854	2.006	2-back	1.0	1.0	0.38	x	TR
85.86	2.006	2-back	0.0	1.0	0.63	n	BL
87.866	2.006	2-back	0.0	1.0	0.586	p	BR
89.872	2.006	2-back	1.0	0.0	0.798	n	TR
91.878	2.006	2-back	1.0	1.0	0.598	p	BL
93.884	2.006	2-back	0.0	1.0	0.615	v	BL
95.89	2.006	2-back	0.0	1.0	0.602	l	TL
97.896	6.02	2-back	1.0	1.0	0.388	v	BR
103.916	2.022	baseline	n/a	1.0	n/a	blackcross.bmp	n/a
105.938	2.023	baseline	1.0	1.0	0.325	redcross.bmp	n/a
107.961	2.023	baseline	n/a	1.0	n/a	blackcross.bmp	n/a
109.984	2.023	baseline	n/a	1.0	n/a	blackcross.bmp	n/a
112.007	2.022	baseline	n/a	1.0	n/a	blackcross.bmp	n/a
114.029	2.023	baseline	1.0	1.0	0.429	redcross.bmp	n/a
116.052	2.023	baseline	n/a	1.0	n/a	blackcross.bmp	n/a
118.075	2.039	baseline	n/a	1.0	n/a	blackcross.bmp	n/a
120.114	2.023	baseline	1.0	1.0	0.335	redcross.bmp	n/a
122.137	2.039	baseline	1.0	1.0	0.36	redcross.bmp	n/a
124.176	2.023	baseline	n/a	1.0	n/a	blackcross.bmp	n/a
126.199	6.033	baseline	n/a	1.0	n/a	blackcross.bmp	n/a
132.232	1.805	no_response	n/a	1.0	n/a	c	TR
134.037	2.006	1-back	0.0	1.0	0.537	g	BL
136.043	2.006	1-back	0.0	1.0	0.521	p	TR
138.049	2.006	1-back	1.0	1.0	0.5	p	BL
140.055	2.006	1-back	0.0	1.0	0.511	t	TL
142.061	2.006	1-back	0.0	1.0	0.471	v	BR
144.067	2.006	1-back	1.0	1.0	0.576	v	TL
146.073	2.006	1-back	0.0	1.0	0.551	s	BL
148.079	2.006	1-back	1.0	1.0	0.511	s	TR
150.085	2.006	1-back	0.0	1.0	0.425	x	BR
152.091	2.006	1-back	0.0	1.0	0.419	n	TL
154.097	2.006	1-back	1.0	1.0	0.576	n	BR
156.103	2.006	1-back	0.0	1.0	0.522	f	TR
158.109	2.006	1-back	1.0	1.0	0.517	f	TL
160.115	2.006	1-back	0.0	1.0	0.452	l	TR
162.121	2.006	1-back	0.0	1.0	0.55	r	BL
164.127	2.006	1-back	0.0	1.0	0.496	z	TR
166.133	2.007	1-back	1.0	1.0	0.501	z	TL
168.14	2.006	1-back	0.0	1.0	0.381	c	TR
170.146	2.006	1-back	1.0	1.0	0.509	c	BL
172.152	2.006	1-back	0.0	1.0	0.42	g	TR
174.158	2.006	1-back	1.0	1.0	0.553	g	BR
176.164	2.006	1-back	0.0	1.0	0.425	x	BL
178.17	2.006	1-back	0.0	1.0	0.537	t	TL
180.176	2.006	1-back	1.0	1.0	0.438	t	BL
182.182	2.006	1-back	0.0	1.0	0.451	r	BR
184.188	2.006	1-back	0.0	1.0	0.438	p	BL
186.194	2.006	1-back	0.0	1.0	0.413	v	TL
188.2	2.006	1-back	0.0	1.0	0.448	s	TR
190.206	2.006	1-back	1.0	1.0	0.57	s	BR
192.212	2.006	1-back	0.0	1.0	0.386	x	BL
194.218	2.006	1-back	1.0	1.0	0.494	x	TL
196.224	2.006	1-back	0.0	1.0	0.438	l	TR
198.23	2.006	1-back	1.0	1.0	0.481	l	BL
200.236	2.006	1-back	0.0	1.0	0.511	n	BR
202.242	2.006	1-back	1.0	1.0	0.536	n	TL
204.248	2.006	1-back	0.0	1.0	0.433	z	BR
206.254	2.006	1-back	1.0	1.0	0.394	z	TL
208.26	2.006	1-back	0.0	1.0	0.471	c	BR
210.266	2.006	1-back	0.0	1.0	0.509	g	BL
212.272	2.006	1-back	0.0	1.0	0.568	p	TL
214.278	2.006	1-back	0.0	1.0	0.486	t	TR
216.284	2.006	1-back	0.0	1.0	0.41	v	BR
218.29	2.006	1-back	0.0	0.0	0.54	f	TL
220.296	2.006	1-back	1.0	1.0	0.477	f	TR
222.302	2.006	1-back	0.0	1.0	0.445	l	BR
224.308	2.006	1-back	0.0	1.0	0.485	r	BL
226.314	6.02	1-back	1.0	0.0	0.814	r	BR
232.334	2.023	baseline	1.0	1.0	0.363	redcross.bmp	n/a
234.357	2.022	baseline	n/a	1.0	n/a	blackcross.bmp	n/a
236.379	2.023	baseline	1.0	1.0	0.255	redcross.bmp	n/a
238.402	2.023	baseline	n/a	1.0	n/a	blackcross.bmp	n/a
240.425	2.023	baseline	n/a	1.0	n/a	blackcross.bmp	n/a
242.448	2.022	baseline	1.0	1.0	0.312	redcross.bmp	n/a
244.47	2.023	baseline	n/a	1.0	n/a	blackcross.bmp	n/a
246.493	2.023	baseline	1.0	1.0	0.356	redcross.bmp	n/a
248.516	2.022	baseline	n/a	1.0	n/a	blackcross.bmp	n/a
250.538	2.023	baseline	n/a	1.0	n/a	blackcross.bmp	n/a
252.561	2.023	baseline	n/a	1.0	n/a	blackcross.bmp	n/a
254.584	2.0	baseline	n/a	1.0	n/a	blackcross.bmp	n/a
