onset	duration	trial_type	correct_response	accuracy	response_time	stimulus	position
4.015	1.805	no_response	n/a	1.0	n/a	p	TR
5.82	2.006	1-back	0.0	1.0	0.425	f	BL
7.826	2.006	1-back	1.0	1.0	0.642	n	BL
9.832	2.006	1-back	0.0	1.0	0.555	x	TR
11.838	2.006	1-back	0.0	1.0	0.692	c	TL
13.844	2.006	1-back	1.0	1.0	0.462	p	TL
15.85	2.006	1-back	0.0	1.0	0.436	n	BL
17.856	2.006	1-back	0.0	1.0	0.446	c	TR
19.862	2.006	1-back	1.0	1.0	0.541	g	TR
21.868	2.006	1-back	0.0	1.0	0.357	n	TL
23.874	2.006	1-back	0.0	1.0	0.426	s	BR
25.88	2.006	1-back	0.0	1.0	0.356	x	BL
27.886	2.006	1-back	0.0	1.0	0.434	t	TL
29.892	2.006	1-back	1.0	1.0	0.381	g	TL
31.898	2.006	1-back	0.0	1.0	0.62	p	BR
33.904	2.006	1-back	0.0	1.0	0.63	c	TL
35.91	2.006	1-back	1.0	1.0	0.454	r	TL
37.916	2.006	1-back	0.0	1.0	0.436	t	BL
39.922	2.006	1-back	1.0	0.0	0.701	v	BL
41.928	2.006	1-back	0.0	0.0	0.507	g	BR
43.934	2.006	1-back	0.0	1.0	0.518	p	TL
45.94	2.006	1-back	0.0	1.0	0.801	x	BR
47.946	2.006	1-back	1.0	1.0	0.421	z	BR
49.952	2.006	1-back	0.0	1.0	0.633	l	TR
51.958	2.006	1-back	1.0	1.0	0.93	v	TR
53.964	2.006	1-back	0.0	1.0	0.417	n	BR
55.97	2.006	1-back	0.0	1.0	0.633	r	BL
57.976	2.006	1-back	1.0	1.0	0.725	s	BL
59.982	2.006	1-back	0.0	1.0	0.957	z	TR
61.988	2.006	1-back	0.0	0.0	n/a	l	TL
63.994	2.006	1-back	0.0	1.0	0.535	g	BR
66.0	2.007	1-back	1.0	1.0	0.282	f	BR
68.007	2.006	1-back	0.0	1.0	0.511	t	TR
70.013	2.006	1-back	0.0	1.0	0.614	z	TL
72.019	2.006	1-back	1.0	1.0	0.788	l	TL
74.025	2.006	1-back	0.0	1.0	0.473	f	BL
76.031	2.006	1-back	0.0	1.0	0.568	t	TR
78.037	2.006	1-back	1.0	1.0	0.525	r	TR
80.043	2.006	1-back	0.0	1.0	0.477	l	BR
82.049	2.006	1-back	1.0	1.0	0.538	z	BR
84.055	2.006	1-back	0.0	1.0	0.677	r	TR
86.061	2.006	1-back	1.0	1.0	0.505	v	TR
88.067	2.006	1-back	0.0	1.0	0.693	s	BL
90.073	2.006	1-back	1.0	1.0	0.439	f	BL
92.079	2.006	1-back	0.0	1.0	0.5	v	TL
94.085	2.006	1-back	0.0	1.0	0.604	x	BR
96.091	2.006	1-back	1.0	1.0	0.527	c	BR
98.097	6.021	1-back	0.0	1.0	0.737	s	BL
104.118	2.023	baseline	n/a	1.0	n/a	blackcross.bmp	n/a
106.141	2.023	baseline	n/a	1.0	n/a	blackcross.bmp	n/a
108.164	2.023	baseline	1.0	1.0	0.267	redcross.bmp	n/a
110.187	2.022	baseline	1.0	1.0	0.321	redcross.bmp	n/a
112.209	2.023	baseline	n/a	1.0	n/a	blackcross.bmp	n/a
114.232	2.023	baseline	n/a	1.0	n/a	blackcross.bmp	n/a
116.255	2.022	baseline	1.0	1.0	0.333	redcross.bmp	n/a
118.277	2.023	baseline	n/a	1.0	n/a	blackcross.bmp	n/a
120.3	2.023	baseline	n/a	1.0	n/a	blackcross.bmp	n/a
122.323	2.023	baseline	n/a	1.0	n/a	blackcross.bmp	n/a
124.346	2.022	baseline	1.0	1.0	0.345	redcross.bmp	n/a
126.368	6.031	baseline	n/a	1.0	n/a	blackcross.bmp	n/a
132.399	1.806	no_response	n/a	1.0	n/a	c	BL
134.205	1.805	no_response	n/a	1.0	n/a	l	TR
136.01	2.006	2-back	1.0	1.0	0.322	v	BL
138.016	2.006	2-back	1.0	1.0	0.921	p	TR
140.022	2.006	2-back	0.0	1.0	0.528	r	TL
142.028	2.006	2-back	0.0	1.0	0.415	t	BR
144.034	2.006	2-back	1.0	1.0	0.408	n	TL
146.04	2.006	2-back	0.0	1.0	0.512	s	TR
148.046	2.006	2-back	0.0	1.0	0.451	f	BL
150.052	2.006	2-back	1.0	1.0	0.917	x	TR
152.058	2.006	2-back	0.0	1.0	0.76	v	BR
154.064	2.006	2-back	0.0	1.0	0.563	p	TL
156.07	2.006	2-back	1.0	1.0	0.386	f	BR
158.076	2.006	2-back	1.0	1.0	0.503	n	TL
160.082	2.006	2-back	0.0	1.0	0.516	x	TR
162.088	2.006	2-back	1.0	1.0	0.548	t	TL
164.094	2.007	2-back	0.0	1.0	0.57	s	BL
166.101	2.005	2-back	0.0	1.0	0.912	l	TR
168.106	2.007	2-back	1.0	1.0	0.791	f	BL
170.113	2.006	2-back	1.0	1.0	0.476	c	TR
172.119	2.006	2-back	0.0	1.0	0.494	r	TL
174.125	2.006	2-back	1.0	1.0	0.429	g	TR
176.131	2.006	2-back	0.0	1.0	0.584	s	BL
178.137	2.006	2-back	0.0	1.0	0.476	r	BR
180.143	2.006	2-back	1.0	0.0	0.699	v	BL
182.149	2.006	2-back	0.0	1.0	0.707	p	BL
184.155	2.006	2-back	0.0	1.0	0.681	t	TL
186.161	2.006	2-back	1.0	1.0	0.71	x	BL
188.167	2.006	2-back	0.0	1.0	0.683	z	BR
190.173	2.006	2-back	0.0	1.0	0.582	t	TR
192.179	2.006	2-back	0.0	0.0	0.701	g	TL
194.185	2.006	2-back	1.0	0.0	0.359	c	TR
196.191	2.006	2-back	0.0	1.0	0.449	p	BL
198.197	2.006	2-back	0.0	1.0	0.497	s	BR
200.203	2.006	2-back	0.0	1.0	0.593	v	TL
202.209	2.006	2-back	1.0	1.0	0.469	n	BR
204.215	2.006	2-back	0.0	1.0	0.43	c	BL
206.221	2.006	2-back	0.0	1.0	0.769	l	TL
208.227	2.006	2-back	0.0	1.0	0.822	x	BR
210.233	2.006	2-back	1.0	1.0	0.398	z	TL
212.239	2.006	2-back	0.0	1.0	0.456	g	TR
214.245	2.006	2-back	0.0	1.0	0.434	f	BR
216.251	2.006	2-back	0.0	0.0	0.386	z	TL
218.257	2.006	2-back	1.0	0.0	0.398	l	BR
220.263	2.006	2-back	0.0	1.0	0.87	r	TR
222.269	2.006	2-back	1.0	1.0	0.489	z	BR
224.275	2.006	2-back	0.0	1.0	0.45	n	BL
226.281	6.021	2-back	1.0	1.0	0.569	g	BR
232.302	2.023	baseline	n/a	1.0	n/a	blackcross.bmp	n/a
234.325	2.023	baseline	n/a	1.0	n/a	blackcross.bmp	n/a
236.348	2.023	baseline	n/a	1.0	n/a	blackcross.bmp	n/a
238.371	2.022	baseline	1.0	1.0	0.418	redcross.bmp	n/a
240.393	2.023	baseline	n/a	1.0	n/a	blackcross.bmp	n/a
242.416	2.023	baseline	1.0	1.0	0.352	redcross.bmp	n/a
244.439	2.023	baseline	n/a	1.0	n/a	blackcross.bmp	n/a
246.462	2.022	baseline	n/a	1.0	n/a	blackcross.bmp	n/a
248.484	2.023	baseline	1.0	1.0	0.347	redcross.bmp	n/a
250.507	2.023	baseline	n/a	1.0	n/a	blackcross.bmp	n/a
252.53	2.023	baseline	n/a	1.0	n/a	blackcross.bmp	n/a
254.553	2.0	baseline	1.0	1.0	0.305	redcross.bmp	n/a
