onset	duration	trial_type	correct_response	accuracy	response_time	stimulus	position
4.014	1.805	no_response	n/a	1.0	n/a	r	TL
5.819	2.006	1-back	1.0	1.0	0.546	r	TR
7.825	2.006	1-back	0.0	1.0	0.977	g	BR
9.831	2.006	1-back	1.0	1.0	0.666	g	TL
11.837	2.006	1-back	0.0	1.0	0.442	f	TR
13.843	2.006	1-back	0.0	1.0	0.684	t	BL
15.849	2.006	1-back	0.0	1.0	0.468	v	TL
17.855	2.006	1-back	0.0	1.0	0.48	p	TR
19.861	2.006	1-back	1.0	1.0	0.426	p	BL
21.867	2.006	1-back	0.0	1.0	0.516	z	BR
23.873	2.006	1-back	0.0	1.0	0.489	s	TR
25.879	2.006	1-back	1.0	1.0	0.411	s	BL
27.885	2.006	1-back	0.0	1.0	0.683	c	TL
29.891	2.006	1-back	1.0	1.0	0.511	c	BR
31.897	2.006	1-back	0.0	1.0	0.531	l	BR
33.903	2.006	1-back	0.0	1.0	0.537	n	BL
35.909	2.006	1-back	0.0	1.0	0.587	v	TL
37.915	2.006	1-back	1.0	1.0	0.394	v	TR
39.921	2.006	1-back	0.0	1.0	0.437	z	BR
41.927	2.006	1-back	0.0	1.0	0.576	s	TL
43.933	2.006	1-back	0.0	1.0	0.669	x	TR
45.939	2.006	1-back	1.0	1.0	0.565	x	BL
47.945	2.006	1-back	1.0	1.0	0.665	x	BR
49.951	2.006	1-back	0.0	1.0	0.454	v	TR
51.957	2.006	1-back	0.0	1.0	0.707	z	TL
53.963	2.006	1-back	1.0	1.0	0.431	z	BR
55.969	2.006	1-back	0.0	1.0	0.471	f	BL
57.975	2.006	1-back	0.0	1.0	0.458	r	TR
59.981	2.006	1-back	1.0	1.0	0.464	r	BL
61.987	2.006	1-back	0.0	1.0	0.42	n	TL
63.993	2.006	1-back	0.0	1.0	0.574	l	BL
65.999	2.005	1-back	1.0	1.0	0.454	l	BR
68.004	2.006	1-back	0.0	1.0	0.448	s	TL
70.01	2.006	1-back	0.0	1.0	0.484	g	TR
72.016	2.006	1-back	0.0	1.0	0.673	c	BL
74.022	2.006	1-back	1.0	1.0	0.399	c	TR
76.028	2.006	1-back	0.0	1.0	0.549	f	BR
78.034	2.006	1-back	1.0	1.0	0.443	f	TL
80.04	2.006	1-back	0.0	1.0	0.516	t	TR
82.046	2.006	1-back	0.0	1.0	0.6	x	BL
84.052	2.006	1-back	0.0	1.0	0.768	p	TL
86.058	2.006	1-back	1.0	1.0	0.584	p	BL
88.064	2.006	1-back	0.0	1.0	0.566	n	BR
90.07	2.006	1-back	1.0	1.0	0.376	n	TL
92.076	2.006	1-back	0.0	1.0	0.451	g	BR
94.082	2.006	1-back	0.0	1.0	0.55	l	BL
96.088	2.006	1-back	0.0	1.0	0.576	t	TR
98.094	6.02	1-back	1.0	1.0	0.496	t	BR
104.114	2.023	baseline	1.0	1.0	0.696	redcross.bmp	n/a
106.137	2.022	baseline	n/a	1.0	n/a	blackcross.bmp	n/a
108.159	2.023	baseline	1.0	1.0	0.491	redcross.bmp	n/a
110.182	2.023	baseline	n/a	1.0	n/a	blackcross.bmp	n/a
112.205	2.022	baseline	n/a	1.0	n/a	blackcross.bmp	n/a
114.227	2.023	baseline	n/a	1.0	n/a	blackcross.bmp	n/a
116.25	2.039	baseline	1.0	1.0	0.382	redcross.bmp	n/a
118.289	2.023	baseline	n/a	1.0	n/a	blackcross.bmp	n/a
120.312	2.023	baseline	n/a	1.0	n/a	blackcross.bmp	n/a
122.335	2.022	baseline	n/a	1.0	n/a	blackcross.bmp	n/a
124.357	2.023	baseline	1.0	1.0	0.314	redcross.bmp	n/a
126.38	6.033	baseline	n/a	1.0	n/a	blackcross.bmp	n/a
132.413	1.805	no_response	n/a	1.0	n/a	v	TR
134.218	1.806	no_response	n/a	1.0	n/a	r	BR
136.024	2.005	2-back	1.0	1.0	0.506	v	TL
138.029	2.006	2-back	0.0	1.0	0.644	g	TR
140.035	2.006	2-back	0.0	1.0	0.676	p	BL
142.041	2.006	2-back	1.0	1.0	0.444	g	BR
144.047	2.006	2-back	0.0	1.0	0.471	n	TL
146.053	2.006	2-back	0.0	1.0	0.705	x	TR
148.059	2.006	2-back	0.0	1.0	0.648	l	BR
150.065	2.006	2-back	0.0	1.0	0.593	c	TL
152.071	2.006	2-back	1.0	1.0	0.424	l	BL
154.077	2.006	2-back	1.0	1.0	0.502	c	TR
156.083	2.006	2-back	0.0	1.0	0.48	t	BR
158.089	2.006	2-back	0.0	1.0	0.485	n	TL
160.095	2.006	2-back	1.0	1.0	0.532	t	BR
162.101	2.006	2-back	0.0	1.0	0.573	f	TR
164.107	2.006	2-back	0.0	1.0	0.583	n	BR
166.113	2.006	2-back	0.0	1.0	0.702	x	TL
168.119	2.006	2-back	1.0	1.0	0.371	n	BL
170.125	2.006	2-back	0.0	1.0	0.467	r	TR
172.131	2.006	2-back	0.0	1.0	0.693	f	TL
174.137	2.006	2-back	1.0	1.0	0.47	r	BR
176.143	2.006	2-back	0.0	1.0	0.46	s	TR
178.149	2.006	2-back	0.0	1.0	0.785	v	BL
180.155	2.006	2-back	0.0	1.0	0.493	p	TL
182.161	2.006	2-back	1.0	1.0	0.304	v	TR
184.167	2.006	2-back	0.0	1.0	0.358	s	BL
186.173	2.006	2-back	0.0	1.0	0.411	p	BR
188.179	2.006	2-back	1.0	1.0	0.489	s	TR
190.185	2.006	2-back	0.0	1.0	0.486	g	BL
192.191	2.006	2-back	0.0	1.0	0.543	z	TL
194.197	2.006	2-back	0.0	1.0	0.611	r	BR
196.203	2.005	2-back	1.0	1.0	0.473	z	BL
198.208	2.007	2-back	0.0	1.0	0.495	c	BL
200.215	2.005	2-back	0.0	1.0	0.417	t	BR
202.22	2.006	2-back	1.0	1.0	0.364	c	TL
204.226	2.006	2-back	1.0	1.0	0.529	t	BL
206.232	2.006	2-back	0.0	1.0	0.486	s	BR
208.238	2.006	2-back	0.0	1.0	0.553	x	BL
210.244	2.006	2-back	0.0	1.0	0.485	f	TR
212.25	2.006	2-back	1.0	1.0	0.345	x	TR
214.256	2.006	2-back	1.0	1.0	0.565	f	BR
216.262	2.006	2-back	0.0	1.0	0.431	l	TL
218.268	2.006	2-back	0.0	1.0	0.486	p	BL
220.274	2.006	2-back	1.0	1.0	0.343	l	BL
222.28	2.006	2-back	0.0	1.0	0.482	z	TL
224.286	2.006	2-back	0.0	1.0	0.492	g	TL
226.292	6.02	2-back	1.0	1.0	0.452	z	TR
232.312	2.023	baseline	n/a	1.0	n/a	blackcross.bmp	n/a
234.335	2.022	baseline	1.0	1.0	0.369	redcross.bmp	n/a
236.357	2.023	baseline	n/a	1.0	n/a	blackcross.bmp	n/a
238.38	2.023	baseline	n/a	1.0	n/a	blackcross.bmp	n/a
240.403	2.022	baseline	n/a	1.0	n/a	blackcross.bmp	n/a
242.425	2.023	baseline	1.0	1.0	0.349	redcross.bmp	n/a
244.448	2.039	baseline	n/a	1.0	n/a	blackcross.bmp	n/a
246.487	2.023	baseline	n/a	1.0	n/a	blackcross.bmp	n/a
248.51	2.023	baseline	n/a	1.0	n/a	blackcross.bmp	n/a
250.533	2.039	baseline	n/a	1.0	n/a	blackcross.bmp	n/a
252.572	2.023	baseline	1.0	1.0	0.298	redcross.bmp	n/a
254.595	2.0	baseline	1.0	1.0	0.5	redcross.bmp	n/a
