onset	duration	trial_type	correct_response	accuracy	response_time	stimulus	position
4.015	1.805	no_response	n/a	1.0	n/a	v	TR
5.82	2.023	1-back	1.0	1.0	0.607	v	BL
7.843	2.023	1-back	0.0	1.0	0.552	p	TR
9.866	2.022	1-back	0.0	1.0	0.567	g	BL
11.888	2.023	1-back	1.0	1.0	0.55	g	TL
13.911	2.023	1-back	0.0	1.0	0.494	z	BR
15.934	2.023	1-back	0.0	1.0	0.482	l	TL
17.957	2.022	1-back	0.0	1.0	0.52	t	BL
19.979	2.023	1-back	1.0	1.0	0.504	t	TR
22.002	2.023	1-back	0.0	1.0	0.37	s	BR
24.025	2.022	1-back	0.0	1.0	0.436	l	TL
26.047	2.023	1-back	0.0	1.0	0.424	x	BR
28.07	2.023	1-back	1.0	1.0	0.662	x	TR
30.093	2.023	1-back	1.0	1.0	0.473	x	TL
32.116	2.022	1-back	0.0	1.0	0.552	s	TR
34.138	2.023	1-back	1.0	1.0	0.542	s	BL
36.161	2.023	1-back	0.0	1.0	0.488	n	TR
38.184	2.023	1-back	0.0	1.0	0.569	r	TL
40.207	2.022	1-back	0.0	1.0	0.588	s	TR
42.229	2.023	1-back	0.0	1.0	0.443	t	BL
44.252	2.023	1-back	1.0	1.0	0.436	t	TR
46.275	2.023	1-back	0.0	1.0	0.469	l	BR
48.298	2.022	1-back	0.0	1.0	0.64	r	BL
50.32	2.023	1-back	0.0	1.0	0.539	f	TL
52.343	2.023	1-back	1.0	1.0	0.545	f	BL
54.366	2.022	1-back	0.0	1.0	0.46	z	BR
56.388	2.023	1-back	1.0	1.0	0.708	z	BL
58.411	2.023	1-back	0.0	1.0	0.465	c	TL
60.434	2.023	1-back	1.0	1.0	0.537	c	TR
62.457	2.022	1-back	0.0	1.0	0.436	p	BR
64.479	2.023	1-back	1.0	1.0	0.542	p	BL
66.502	2.023	1-back	0.0	1.0	0.427	n	TL
68.525	2.023	1-back	1.0	1.0	0.488	n	TR
70.548	2.022	1-back	0.0	1.0	0.412	f	BL
72.57	2.023	1-back	1.0	1.0	0.413	f	BR
74.593	2.023	1-back	0.0	1.0	0.377	l	TL
76.616	2.023	1-back	0.0	1.0	0.457	r	BR
78.639	2.022	1-back	1.0	1.0	0.674	r	TL
80.661	2.023	1-back	0.0	1.0	0.446	z	BR
82.684	2.023	1-back	0.0	1.0	0.486	n	BL
84.707	2.023	1-back	0.0	1.0	0.407	c	TL
86.73	2.022	1-back	1.0	1.0	0.524	c	TR
88.752	2.023	1-back	0.0	1.0	0.404	v	BR
90.775	2.023	1-back	1.0	1.0	0.646	v	TL
92.798	2.022	1-back	0.0	1.0	0.418	x	TR
94.82	2.023	1-back	0.0	1.0	0.436	g	BR
96.843	2.023	1-back	0.0	1.0	0.5	p	BL
98.866	6.037	1-back	0.0	1.0	0.771	g	BR
104.903	2.022	baseline	n/a	1.0	n/a	blackcross.bmp	n/a
106.925	2.023	baseline	n/a	1.0	n/a	blackcross.bmp	n/a
108.948	2.023	baseline	1.0	1.0	0.305	redcross.bmp	n/a
110.971	2.023	baseline	1.0	1.0	0.368	redcross.bmp	n/a
112.994	2.022	baseline	n/a	1.0	n/a	blackcross.bmp	n/a
115.016	2.023	baseline	n/a	1.0	n/a	blackcross.bmp	n/a
117.039	2.023	baseline	n/a	1.0	n/a	blackcross.bmp	n/a
119.062	2.023	baseline	1.0	1.0	0.339	redcross.bmp	n/a
121.085	2.022	baseline	n/a	1.0	n/a	blackcross.bmp	n/a
123.107	2.023	baseline	n/a	1.0	n/a	blackcross.bmp	n/a
125.13	2.023	baseline	1.0	1.0	0.33	redcross.bmp	n/a
127.153	6.033	baseline	n/a	1.0	n/a	blackcross.bmp	n/a
133.186	1.805	no_response	n/a	1.0	n/a	c	TR
134.991	1.805	no_response	n/a	1.0	n/a	g	BL
136.796	2.023	2-back	1.0	1.0	0.522	c	BL
138.819	2.023	2-back	0.0	1.0	0.588	p	TR
140.842	2.023	2-back	0.0	1.0	0.613	v	TL
142.865	2.022	2-back	1.0	1.0	0.596	p	TL
144.887	2.023	2-back	0.0	1.0	0.67	s	BL
146.91	2.023	2-back	0.0	1.0	0.464	x	TR
148.933	2.023	2-back	1.0	1.0	0.532	s	TR
150.956	2.022	2-back	1.0	1.0	0.65	x	TL
152.978	2.023	2-back	0.0	1.0	0.49	n	BR
155.001	2.023	2-back	0.0	1.0	0.527	f	BL
157.024	2.022	2-back	1.0	0.0	0.716	n	TL
159.046	2.023	2-back	0.0	1.0	0.638	t	TL
161.069	2.023	2-back	0.0	1.0	0.528	l	TR
163.092	2.023	2-back	0.0	1.0	0.678	r	BR
165.115	2.022	2-back	1.0	1.0	0.585	l	TL
167.137	2.023	2-back	0.0	1.0	0.451	z	TL
169.16	2.023	2-back	0.0	1.0	0.529	v	BL
171.183	2.023	2-back	0.0	1.0	0.57	t	BR
173.206	2.022	2-back	0.0	1.0	0.508	g	TL
175.228	2.023	2-back	1.0	1.0	0.659	t	BL
177.251	2.023	2-back	0.0	1.0	0.689	f	BR
179.274	2.023	2-back	0.0	1.0	0.553	r	BR
181.297	2.022	2-back	1.0	1.0	0.704	f	TR
183.319	2.023	2-back	0.0	1.0	0.467	z	BL
185.342	2.023	2-back	0.0	1.0	0.425	c	BR
187.365	2.022	2-back	0.0	1.0	0.486	g	TR
189.387	2.023	2-back	1.0	1.0	0.501	c	BL
191.41	2.023	2-back	0.0	1.0	0.47	p	BR
193.433	2.023	2-back	0.0	1.0	0.504	v	BR
195.456	2.022	2-back	1.0	1.0	0.453	p	TR
197.478	2.023	2-back	0.0	1.0	0.392	s	TL
199.501	2.023	2-back	0.0	1.0	0.448	t	BR
201.524	2.023	2-back	1.0	1.0	0.452	s	TR
203.547	2.022	2-back	0.0	1.0	0.412	r	TL
205.569	2.023	2-back	0.0	1.0	0.455	z	BL
207.592	2.023	2-back	1.0	1.0	0.72	r	TR
209.615	2.023	2-back	1.0	1.0	0.587	z	BR
211.638	2.022	2-back	0.0	1.0	0.457	n	TL
213.66	2.023	2-back	0.0	1.0	0.423	g	TR
215.683	2.023	2-back	1.0	1.0	0.577	n	BL
217.706	2.023	2-back	0.0	1.0	0.542	x	BR
219.729	2.022	2-back	0.0	1.0	0.653	v	TR
221.751	2.023	2-back	1.0	0.0	0.653	x	BL
223.774	2.023	2-back	0.0	1.0	0.55	l	BL
225.797	2.022	2-back	0.0	1.0	0.468	f	TL
227.819	6.037	2-back	1.0	0.0	0.894	l	BR
233.856	2.023	baseline	n/a	1.0	n/a	blackcross.bmp	n/a
235.879	2.023	baseline	1.0	1.0	0.312	redcross.bmp	n/a
237.902	2.022	baseline	n/a	1.0	n/a	blackcross.bmp	n/a
239.924	2.023	baseline	1.0	1.0	0.298	redcross.bmp	n/a
241.947	2.023	baseline	n/a	1.0	n/a	blackcross.bmp	n/a
243.97	2.023	baseline	n/a	1.0	n/a	blackcross.bmp	n/a
245.993	2.022	baseline	n/a	1.0	n/a	blackcross.bmp	n/a
248.015	2.023	baseline	1.0	1.0	0.283	redcross.bmp	n/a
250.038	2.023	baseline	n/a	1.0	n/a	blackcross.bmp	n/a
252.061	2.039	baseline	1.0	1.0	0.287	redcross.bmp	n/a
254.1	2.023	baseline	n/a	1.0	n/a	blackcross.bmp	n/a
256.123	2.0	baseline	n/a	1.0	n/a	blackcross.bmp	n/a
