onset	duration	trial_type	correct_response	accuracy	response_time	stimulus	position
4.015	1.805	no_response	n/a	1.0	n/a	r	TL
5.82	1.805	no_response	n/a	1.0	n/a	p	TR
7.625	2.023	2-back	0.0	1.0	0.519	x	BL
9.648	2.023	2-back	1.0	1.0	0.571	t	TR
11.671	2.023	2-back	0.0	1.0	0.701	g	TL
13.694	2.022	2-back	0.0	1.0	0.442	n	BL
15.716	2.023	2-back	1.0	1.0	0.351	z	TL
17.739	2.023	2-back	0.0	1.0	0.37	c	TR
19.762	2.023	2-back	0.0	1.0	0.501	v	BR
21.785	2.022	2-back	0.0	1.0	0.521	n	BL
23.807	2.023	2-back	1.0	1.0	0.643	g	BR
25.83	2.023	2-back	0.0	1.0	0.484	s	TL
27.853	2.022	2-back	0.0	1.0	0.555	v	TR
29.875	2.023	2-back	1.0	1.0	0.343	l	TL
31.898	2.023	2-back	1.0	1.0	0.621	f	TR
33.921	2.023	2-back	0.0	1.0	0.501	s	BR
35.944	2.022	2-back	0.0	1.0	0.664	c	TL
37.966	2.023	2-back	0.0	1.0	0.471	r	BL
39.989	2.023	2-back	1.0	1.0	0.405	s	TL
42.012	2.023	2-back	0.0	1.0	0.506	l	BR
44.035	2.022	2-back	0.0	1.0	0.792	z	BL
46.057	2.023	2-back	1.0	1.0	0.369	x	BR
48.08	2.023	2-back	0.0	1.0	0.524	f	TL
50.103	2.023	2-back	0.0	1.0	0.429	t	TL
52.126	2.022	2-back	0.0	1.0	0.867	x	BR
54.148	2.023	2-back	1.0	0.0	1.068	r	TL
56.171	2.023	2-back	1.0	1.0	0.571	l	BR
58.194	2.023	2-back	0.0	1.0	0.776	n	BL
60.217	2.022	2-back	1.0	1.0	0.515	s	BR
62.239	2.023	2-back	0.0	1.0	0.95	f	BR
64.262	2.023	2-back	0.0	0.0	1.055	g	BL
66.285	2.023	2-back	0.0	1.0	0.948	p	TR
68.308	2.022	2-back	1.0	0.0	0.771	v	BL
70.33	2.023	2-back	1.0	0.0	0.523	t	TR
72.353	2.023	2-back	1.0	1.0	1.059	t	BL
74.376	2.023	2-back	0.0	1.0	0.779	z	TL
76.399	2.022	2-back	0.0	1.0	0.676	f	TR
78.421	2.023	2-back	1.0	1.0	0.414	p	TL
80.444	2.023	2-back	1.0	1.0	0.755	g	TR
82.467	2.022	2-back	0.0	1.0	0.644	c	BL
84.489	2.023	2-back	1.0	1.0	0.363	r	TR
86.512	2.023	2-back	0.0	1.0	0.711	p	BR
88.535	2.023	2-back	1.0	1.0	0.752	x	TR
90.558	2.022	2-back	0.0	1.0	0.978	l	TR
92.58	2.023	2-back	0.0	0.0	0.706	z	BL
94.603	2.023	2-back	0.0	0.0	n/a	c	BR
96.626	2.023	2-back	1.0	0.0	0.644	n	BL
98.649	6.037	2-back	1.0	1.0	0.721	v	BR
104.686	2.023	baseline	1.0	1.0	0.424	redcross.bmp	n/a
106.709	2.022	baseline	n/a	1.0	n/a	blackcross.bmp	n/a
108.731	2.039	baseline	n/a	1.0	n/a	blackcross.bmp	n/a
110.77	2.023	baseline	n/a	1.0	n/a	blackcross.bmp	n/a
112.793	2.039	baseline	1.0	1.0	0.316	redcross.bmp	n/a
114.832	2.024	baseline	n/a	1.0	n/a	blackcross.bmp	n/a
116.856	2.039	baseline	n/a	1.0	n/a	blackcross.bmp	n/a
118.895	2.039	baseline	1.0	1.0	0.313	redcross.bmp	n/a
120.934	2.023	baseline	n/a	1.0	n/a	blackcross.bmp	n/a
122.957	2.039	baseline	n/a	1.0	n/a	blackcross.bmp	n/a
124.996	2.023	baseline	1.0	1.0	0.309	redcross.bmp	n/a
127.019	6.033	baseline	n/a	1.0	n/a	blackcross.bmp	n/a
133.052	1.805	no_response	n/a	1.0	n/a	t	TR
134.857	2.023	1-back	0.0	1.0	0.985	c	BR
136.88	2.023	1-back	0.0	1.0	0.584	n	BL
138.903	2.023	1-back	1.0	1.0	0.383	l	BL
140.926	2.022	1-back	0.0	1.0	0.568	g	TR
142.948	2.023	1-back	0.0	1.0	0.465	f	TL
144.971	2.023	1-back	1.0	1.0	0.491	p	TL
146.994	2.023	1-back	0.0	1.0	0.436	x	TR
149.017	2.022	1-back	1.0	1.0	0.459	n	TR
151.039	2.023	1-back	0.0	1.0	0.68	s	TL
153.062	2.023	1-back	0.0	1.0	0.49	r	BR
155.085	2.023	1-back	1.0	1.0	0.433	v	BR
157.108	2.022	1-back	0.0	1.0	0.495	l	TL
159.13	2.023	1-back	1.0	1.0	0.422	z	TL
161.153	2.023	1-back	0.0	1.0	0.456	c	TR
163.176	2.023	1-back	0.0	1.0	0.445	f	BL
165.199	2.022	1-back	0.0	1.0	0.435	p	TR
167.221	2.023	1-back	1.0	1.0	0.657	t	TR
169.244	2.023	1-back	0.0	1.0	0.572	g	BL
171.267	2.022	1-back	1.0	1.0	0.39	x	BL
173.289	2.023	1-back	0.0	1.0	0.466	c	TR
175.312	2.023	1-back	1.0	1.0	0.482	p	TR
177.335	2.023	1-back	0.0	1.0	0.527	z	TL
179.358	2.022	1-back	0.0	1.0	0.576	r	BL
181.38	2.023	1-back	1.0	1.0	0.604	n	BL
183.403	2.023	1-back	0.0	1.0	0.655	z	BR
185.426	2.023	1-back	0.0	1.0	0.836	f	BL
187.449	2.022	1-back	0.0	1.0	0.753	s	TL
189.471	2.023	1-back	0.0	1.0	0.606	v	BR
191.494	2.023	1-back	1.0	1.0	0.349	c	BR
193.517	2.023	1-back	0.0	1.0	0.444	z	TL
195.54	2.022	1-back	1.0	1.0	0.47	r	TL
197.562	2.023	1-back	0.0	1.0	0.457	l	TR
199.585	2.023	1-back	1.0	1.0	0.643	n	TR
201.608	2.023	1-back	0.0	1.0	0.478	v	BR
203.631	2.022	1-back	1.0	1.0	0.43	f	BR
205.653	2.023	1-back	0.0	1.0	0.537	r	TL
207.676	2.023	1-back	1.0	1.0	0.491	l	TL
209.699	2.023	1-back	0.0	1.0	0.562	x	BR
211.722	2.022	1-back	0.0	1.0	0.832	s	BL
213.744	2.023	1-back	0.0	1.0	0.496	g	TL
215.767	2.023	1-back	0.0	1.0	0.728	t	BL
217.79	2.023	1-back	0.0	1.0	0.571	p	BR
219.813	2.022	1-back	0.0	1.0	0.604	s	BL
221.835	2.023	1-back	1.0	1.0	0.413	x	BL
223.858	2.023	1-back	0.0	1.0	0.439	v	TR
225.881	2.023	1-back	0.0	1.0	0.557	t	BR
227.904	6.036	1-back	1.0	1.0	0.566	g	BR
233.94	2.023	baseline	n/a	1.0	n/a	blackcross.bmp	n/a
235.963	2.039	baseline	1.0	1.0	0.336	redcross.bmp	n/a
238.002	2.023	baseline	n/a	1.0	n/a	blackcross.bmp	n/a
240.025	2.023	baseline	1.0	1.0	0.34	redcross.bmp	n/a
242.048	2.039	baseline	1.0	1.0	0.398	redcross.bmp	n/a
244.087	2.024	baseline	n/a	1.0	n/a	blackcross.bmp	n/a
246.111	2.022	baseline	n/a	1.0	n/a	blackcross.bmp	n/a
248.133	2.039	baseline	n/a	1.0	n/a	blackcross.bmp	n/a
250.172	2.023	baseline	n/a	1.0	n/a	blackcross.bmp	n/a
252.195	2.023	baseline	1.0	1.0	0.31	redcross.bmp	n/a
254.218	2.039	baseline	n/a	1.0	n/a	blackcross.bmp	n/a
256.257	2.0	baseline	n/a	1.0	n/a	blackcross.bmp	n/a
