onset	duration	trial_type	correct_response	accuracy	response_time	stimulus	position
4.014	1.806	no_response	n/a	1.0	n/a	v	TR
5.82	1.805	no_response	n/a	1.0	n/a	r	BR
7.625	2.006	2-back	1.0	1.0	0.736	v	TL
9.631	2.006	2-back	0.0	1.0	0.681	g	TR
11.637	2.006	2-back	0.0	1.0	0.731	p	BL
13.643	2.006	2-back	1.0	0.0	1.197	g	BR
15.649	2.006	2-back	0.0	1.0	0.926	n	TL
17.655	2.006	2-back	0.0	1.0	0.752	x	TR
19.661	2.006	2-back	0.0	1.0	1.034	l	BR
21.667	2.006	2-back	0.0	1.0	0.53	c	TL
23.673	2.006	2-back	1.0	1.0	0.528	l	BL
25.679	2.006	2-back	1.0	1.0	0.471	c	TR
27.685	2.006	2-back	0.0	1.0	0.675	t	BR
29.691	2.006	2-back	0.0	1.0	0.696	n	TL
31.697	2.007	2-back	1.0	1.0	0.581	t	BR
33.704	2.006	2-back	0.0	1.0	0.728	f	TR
35.71	2.006	2-back	0.0	1.0	0.725	n	BR
37.716	2.006	2-back	0.0	1.0	0.687	x	TL
39.722	2.006	2-back	1.0	1.0	0.73	n	BL
41.728	2.006	2-back	0.0	1.0	0.76	r	TR
43.734	2.006	2-back	0.0	1.0	0.78	f	TL
45.74	2.006	2-back	1.0	1.0	0.614	r	BR
47.746	2.006	2-back	0.0	1.0	0.448	s	TR
49.752	2.006	2-back	0.0	1.0	0.613	v	BL
51.758	2.006	2-back	0.0	1.0	0.564	p	TL
53.764	2.006	2-back	1.0	1.0	0.412	v	TR
55.77	2.006	2-back	0.0	1.0	0.627	s	BL
57.776	2.006	2-back	0.0	1.0	1.002	p	BR
59.782	2.006	2-back	1.0	1.0	1.115	s	TR
61.788	2.006	2-back	0.0	1.0	0.904	g	BL
63.794	2.006	2-back	0.0	1.0	1.012	z	TL
65.8	2.006	2-back	0.0	1.0	0.812	r	BR
67.806	2.006	2-back	1.0	1.0	0.768	z	BL
69.812	2.006	2-back	0.0	1.0	0.554	c	BL
71.818	2.006	2-back	0.0	1.0	0.967	t	BR
73.824	2.006	2-back	1.0	1.0	0.445	c	TL
75.83	2.006	2-back	1.0	1.0	0.866	t	BL
77.836	2.006	2-back	0.0	1.0	0.66	s	BR
79.842	2.006	2-back	0.0	1.0	0.912	x	BL
81.848	2.006	2-back	0.0	1.0	0.484	f	TR
83.854	2.006	2-back	1.0	1.0	0.488	x	TR
85.86	2.006	2-back	1.0	1.0	0.513	f	BR
87.866	2.006	2-back	0.0	1.0	0.479	l	TL
89.872	2.006	2-back	0.0	1.0	0.672	p	BL
91.878	2.006	2-back	1.0	1.0	0.566	l	BL
93.884	2.006	2-back	0.0	1.0	0.695	z	TL
95.89	2.006	2-back	0.0	1.0	0.818	g	TL
97.896	13.039	2-back	1.0	1.0	0.444	z	TR
110.935	1.806	no_response	n/a	1.0	n/a	r	TL
112.741	2.006	1-back	1.0	1.0	0.52	r	TR
114.747	2.006	1-back	0.0	1.0	0.649	g	BR
116.753	2.006	1-back	1.0	0.0	0.996	g	TL
118.759	2.006	1-back	0.0	1.0	1.015	f	TR
120.765	2.006	1-back	0.0	1.0	1.076	t	BL
122.771	2.006	1-back	0.0	1.0	0.941	v	TL
124.777	2.006	1-back	0.0	1.0	0.506	p	TR
126.783	2.006	1-back	1.0	1.0	0.479	p	BL
128.789	2.006	1-back	0.0	1.0	0.542	z	BR
130.795	2.006	1-back	0.0	1.0	0.461	s	TR
132.801	2.006	1-back	1.0	1.0	0.525	s	BL
134.807	2.006	1-back	0.0	1.0	0.525	c	TL
136.813	2.006	1-back	1.0	1.0	0.404	c	BR
138.819	2.006	1-back	0.0	1.0	0.702	l	BR
140.825	2.006	1-back	0.0	1.0	0.578	n	BL
142.831	2.006	1-back	0.0	1.0	0.688	v	TL
144.837	2.006	1-back	1.0	1.0	0.388	v	TR
146.843	2.006	1-back	0.0	1.0	0.576	z	BR
148.849	2.006	1-back	0.0	1.0	0.542	s	TL
150.855	2.006	1-back	0.0	1.0	0.812	x	TR
152.861	2.006	1-back	1.0	1.0	0.544	x	BL
154.867	2.006	1-back	1.0	1.0	0.486	x	BR
156.873	2.006	1-back	0.0	1.0	0.428	v	TR
158.879	2.006	1-back	0.0	1.0	0.473	z	TL
160.885	2.006	1-back	1.0	0.0	0.516	z	BR
162.891	2.007	1-back	0.0	1.0	0.571	f	BL
164.898	2.006	1-back	0.0	1.0	0.891	r	TR
166.904	2.006	1-back	1.0	1.0	0.484	r	BL
168.91	2.006	1-back	0.0	1.0	0.905	n	TL
170.916	2.006	1-back	0.0	1.0	0.576	l	BL
172.922	2.006	1-back	1.0	1.0	0.658	l	BR
174.928	2.006	1-back	0.0	1.0	0.424	s	TL
176.934	2.006	1-back	0.0	1.0	0.762	g	TR
178.94	2.006	1-back	0.0	1.0	0.548	c	BL
180.946	2.006	1-back	1.0	1.0	0.486	c	TR
182.952	2.006	1-back	0.0	1.0	0.544	f	BR
184.958	2.006	1-back	1.0	1.0	0.418	f	TL
186.964	2.006	1-back	0.0	1.0	0.58	t	TR
188.97	2.006	1-back	0.0	1.0	0.739	x	BL
190.976	2.006	1-back	0.0	1.0	0.59	p	TL
192.982	2.006	1-back	1.0	1.0	0.593	p	BL
194.988	2.006	1-back	0.0	1.0	0.856	n	BR
196.994	2.006	1-back	1.0	1.0	0.48	n	TL
199.0	2.006	1-back	0.0	1.0	0.509	g	BR
201.006	2.006	1-back	0.0	1.0	0.684	l	BL
203.012	2.006	1-back	0.0	1.0	0.703	t	TR
205.018	2.0	1-back	1.0	1.0	0.469	t	BR
