onset	duration	trial_type	correct_response	accuracy	response_time	stimulus	position
2.009	1.805	no_response	n/a	1.0	n/a	v	TR
3.814	2.023	1-back	0.0	1.0	0.486	p	TL
5.837	2.022	1-back	0.0	1.0	0.706	z	BL
7.859	2.023	1-back	1.0	1.0	0.507	c	BL
9.882	2.023	1-back	0.0	1.0	0.497	t	TR
11.905	2.022	1-back	0.0	1.0	0.468	l	TL
13.927	2.023	1-back	1.0	1.0	0.45	c	TL
15.95	2.023	1-back	0.0	1.0	0.685	v	BL
17.973	2.023	1-back	0.0	1.0	0.522	n	BR
19.996	2.022	1-back	1.0	1.0	0.403	l	BR
22.018	2.023	1-back	0.0	1.0	0.428	v	TL
24.041	2.023	1-back	0.0	1.0	0.441	c	BR
26.064	2.022	1-back	0.0	1.0	0.537	r	TR
28.086	2.023	1-back	1.0	1.0	0.547	t	TR
30.109	2.023	1-back	0.0	1.0	0.406	n	BL
32.132	2.023	1-back	1.0	1.0	0.999	s	BL
34.155	2.022	1-back	0.0	1.0	0.385	v	TR
36.177	2.023	1-back	0.0	1.0	0.403	p	TL
38.2	2.023	1-back	1.0	1.0	0.362	c	TL
40.223	2.022	1-back	0.0	1.0	0.349	g	TR
42.245	2.023	1-back	1.0	0.0	0.311	z	TR
44.268	2.023	1-back	0.0	1.0	0.469	x	BR
46.291	2.023	1-back	0.0	1.0	0.566	g	BL
48.314	2.022	1-back	0.0	1.0	0.657	l	TL
50.336	2.023	1-back	0.0	1.0	0.495	r	BL
52.359	2.023	1-back	1.0	1.0	0.514	x	BL
54.382	2.022	1-back	0.0	1.0	0.467	f	BR
56.404	2.023	1-back	0.0	1.0	0.514	z	TR
58.427	2.023	1-back	1.0	1.0	0.435	r	TR
60.45	2.022	1-back	0.0	1.0	0.395	f	BL
62.472	2.023	1-back	1.0	1.0	0.623	n	BL
64.495	2.023	1-back	0.0	1.0	0.308	x	TR
66.518	2.023	1-back	1.0	1.0	0.462	t	TR
68.541	2.022	1-back	0.0	1.0	0.439	p	BR
70.563	2.023	1-back	1.0	1.0	0.475	x	BR
72.586	2.023	1-back	0.0	1.0	0.438	t	TL
74.609	2.022	1-back	1.0	1.0	0.421	s	TL
76.631	2.023	1-back	0.0	1.0	0.47	f	BL
78.654	2.023	1-back	0.0	1.0	0.548	l	BR
80.677	2.023	1-back	1.0	1.0	0.5	g	BR
82.7	2.022	1-back	0.0	1.0	0.454	n	TL
84.722	2.023	1-back	0.0	1.0	0.458	s	TR
86.745	2.023	1-back	0.0	1.0	0.486	p	BR
88.768	2.022	1-back	0.0	1.0	0.51	r	TL
90.79	2.023	1-back	1.0	1.0	0.523	s	TL
92.813	2.023	1-back	0.0	1.0	0.536	g	BR
94.836	2.023	1-back	1.0	1.0	0.668	z	BR
96.859	6.038	1-back	0.0	1.0	0.55	f	BL
102.897	2.023	baseline	n/a	1.0	n/a	blackcross.bmp	n/a
104.92	2.022	baseline	n/a	1.0	n/a	blackcross.bmp	n/a
106.942	2.023	baseline	1.0	1.0	0.294	redcross.bmp	n/a
108.965	2.023	baseline	1.0	1.0	0.521	redcross.bmp	n/a
110.988	2.022	baseline	n/a	1.0	n/a	blackcross.bmp	n/a
113.01	2.023	baseline	n/a	1.0	n/a	blackcross.bmp	n/a
115.033	2.023	baseline	1.0	1.0	0.346	redcross.bmp	n/a
117.056	2.039	baseline	n/a	1.0	n/a	blackcross.bmp	n/a
119.095	2.023	baseline	n/a	1.0	n/a	blackcross.bmp	n/a
121.118	2.023	baseline	n/a	1.0	n/a	blackcross.bmp	n/a
123.141	2.022	baseline	n/a	1.0	n/a	blackcross.bmp	n/a
125.163	2.023	baseline	n/a	1.0	n/a	blackcross.bmp	n/a
127.186	2.023	baseline	1.0	1.0	0.339	redcross.bmp	n/a
129.209	2.023	baseline	1.0	1.0	0.354	redcross.bmp	n/a
131.232	2.022	baseline	n/a	1.0	n/a	blackcross.bmp	n/a
133.254	2.023	baseline	1.0	1.0	0.364	redcross.bmp	n/a
135.277	2.023	baseline	n/a	1.0	n/a	blackcross.bmp	n/a
137.3	2.022	baseline	n/a	1.0	n/a	blackcross.bmp	n/a
139.322	2.023	baseline	1.0	1.0	0.573	redcross.bmp	n/a
141.345	2.023	baseline	n/a	1.0	n/a	blackcross.bmp	n/a
143.368	2.023	baseline	n/a	1.0	n/a	blackcross.bmp	n/a
145.391	2.022	baseline	n/a	1.0	n/a	blackcross.bmp	n/a
147.413	2.023	baseline	n/a	1.0	n/a	blackcross.bmp	n/a
149.436	6.031	baseline	1.0	0.0	n/a	redcross.bmp	n/a
155.467	1.805	no_response	n/a	1.0	n/a	c	BL
157.272	1.806	no_response	n/a	1.0	n/a	p	BR
159.078	2.022	2-back	1.0	1.0	0.588	n	BL
161.1	2.023	2-back	0.0	1.0	0.475	x	TR
163.123	2.023	2-back	0.0	1.0	0.796	g	TL
165.146	2.023	2-back	1.0	1.0	0.604	p	TR
167.169	2.022	2-back	1.0	1.0	0.688	c	TL
169.191	2.023	2-back	0.0	1.0	0.627	x	BL
171.214	2.023	2-back	1.0	1.0	0.597	l	TL
173.237	2.023	2-back	0.0	1.0	0.631	v	TR
175.26	2.022	2-back	0.0	1.0	0.857	g	TR
177.282	2.023	2-back	0.0	1.0	0.533	t	BR
179.305	2.023	2-back	0.0	1.0	0.822	z	BL
181.328	2.022	2-back	1.0	1.0	0.822	n	BR
183.35	2.023	2-back	0.0	1.0	0.503	f	TL
185.373	2.023	2-back	0.0	1.0	0.625	n	TR
187.396	2.022	2-back	1.0	1.0	0.809	t	TL
189.418	2.023	2-back	0.0	1.0	0.579	v	BL
191.441	2.023	2-back	1.0	0.0	0.731	l	TL
193.464	2.023	2-back	0.0	1.0	0.548	r	TL
195.487	2.022	2-back	0.0	1.0	0.526	s	BR
197.509	2.023	2-back	0.0	1.0	0.641	v	BL
199.532	2.023	2-back	1.0	0.0	0.634	n	BR
201.555	2.022	2-back	0.0	1.0	0.595	p	TL
203.577	2.023	2-back	0.0	1.0	0.552	s	TR
205.6	2.023	2-back	0.0	1.0	0.484	g	BR
207.623	2.023	2-back	0.0	1.0	0.371	p	BL
209.646	2.022	2-back	1.0	0.0	0.217	f	BR
211.668	2.023	2-back	0.0	0.0	n/a	r	TR
213.691	2.023	2-back	0.0	0.0	n/a	s	BL
215.714	2.022	2-back	1.0	0.0	n/a	z	TR
217.736	2.023	2-back	1.0	0.0	0.709	x	BL
219.759	2.023	2-back	0.0	1.0	0.569	c	TL
221.782	2.023	2-back	0.0	1.0	0.912	r	TR
223.805	2.022	2-back	0.0	1.0	1.019	v	BR
225.827	2.023	2-back	0.0	1.0	0.833	l	TL
227.85	2.023	2-back	1.0	1.0	0.72	c	BR
229.873	2.022	2-back	0.0	1.0	0.649	s	TR
231.895	2.023	2-back	1.0	1.0	0.627	t	BR
233.918	2.023	2-back	0.0	1.0	0.605	r	BL
235.941	2.022	2-back	0.0	1.0	0.595	f	TL
237.963	2.023	2-back	1.0	1.0	0.532	z	BL
239.986	2.023	2-back	0.0	1.0	0.594	l	TR
242.009	2.023	2-back	0.0	0.0	0.556	x	TL
244.032	2.022	2-back	1.0	1.0	0.619	f	TR
246.054	2.023	2-back	0.0	1.0	0.567	g	BR
248.077	2.023	2-back	0.0	1.0	0.563	t	BL
250.1	6.038	2-back	1.0	1.0	0.748	z	BR
256.138	2.023	baseline	n/a	1.0	n/a	blackcross.bmp	n/a
258.161	2.022	baseline	n/a	1.0	n/a	blackcross.bmp	n/a
260.183	2.023	baseline	n/a	1.0	n/a	blackcross.bmp	n/a
262.206	2.023	baseline	1.0	1.0	0.336	redcross.bmp	n/a
264.229	2.023	baseline	n/a	1.0	n/a	blackcross.bmp	n/a
266.252	2.022	baseline	1.0	1.0	0.354	redcross.bmp	n/a
268.274	2.023	baseline	n/a	1.0	n/a	blackcross.bmp	n/a
270.297	2.023	baseline	n/a	1.0	n/a	blackcross.bmp	n/a
272.32	2.022	baseline	1.0	1.0	0.396	redcross.bmp	n/a
274.342	2.023	baseline	n/a	1.0	n/a	blackcross.bmp	n/a
276.365	2.023	baseline	n/a	1.0	n/a	blackcross.bmp	n/a
278.388	2.023	baseline	1.0	1.0	0.268	redcross.bmp	n/a
280.411	2.022	baseline	1.0	1.0	0.351	redcross.bmp	n/a
282.433	2.023	baseline	n/a	1.0	n/a	blackcross.bmp	n/a
284.456	2.023	baseline	n/a	1.0	n/a	blackcross.bmp	n/a
286.479	2.022	baseline	n/a	1.0	n/a	blackcross.bmp	n/a
288.501	2.023	baseline	n/a	1.0	n/a	blackcross.bmp	n/a
290.524	2.023	baseline	1.0	1.0	0.381	redcross.bmp	n/a
292.547	2.039	baseline	n/a	1.0	n/a	blackcross.bmp	n/a
294.586	2.023	baseline	1.0	1.0	0.334	redcross.bmp	n/a
296.609	2.023	baseline	n/a	1.0	n/a	blackcross.bmp	n/a
298.632	2.022	baseline	n/a	1.0	n/a	blackcross.bmp	n/a
300.654	2.023	baseline	1.0	1.0	0.322	redcross.bmp	n/a
302.677	2.0	baseline	n/a	1.0	n/a	blackcross.bmp	n/a
