onset	duration	trial_type	correct_response	accuracy	response_time	stimulus	position
4.015	1.805	no_response	n/a	1.0	n/a	c	BL
5.82	1.805	no_response	n/a	1.0	n/a	p	BR
7.625	2.023	2-back	1.0	1.0	0.691	n	BL
9.648	2.023	2-back	0.0	1.0	1.012	x	TR
11.671	2.023	2-back	0.0	0.0	n/a	g	TL
13.694	2.022	2-back	1.0	0.0	0.803	p	TR
15.716	2.023	2-back	1.0	1.0	0.675	c	TL
17.739	2.023	2-back	0.0	1.0	0.718	x	BL
19.762	2.023	2-back	1.0	0.0	0.973	l	TL
21.785	2.022	2-back	0.0	1.0	0.971	v	TR
23.807	2.023	2-back	0.0	0.0	n/a	g	TR
25.83	2.023	2-back	0.0	1.0	0.846	t	BR
27.853	2.023	2-back	0.0	1.0	0.913	z	BL
29.876	2.022	2-back	1.0	1.0	0.803	n	BR
31.898	2.023	2-back	0.0	1.0	0.649	f	TL
33.921	2.023	2-back	0.0	1.0	0.546	n	TR
35.944	2.022	2-back	1.0	1.0	0.508	t	TL
37.966	2.023	2-back	0.0	1.0	0.697	v	BL
39.989	2.023	2-back	1.0	1.0	1.106	l	TL
42.012	2.023	2-back	0.0	1.0	1.145	r	TL
44.035	2.022	2-back	0.0	1.0	0.738	s	BR
46.057	2.023	2-back	0.0	1.0	0.994	v	BL
48.08	2.023	2-back	1.0	1.0	0.664	n	BR
50.103	2.023	2-back	0.0	1.0	0.861	p	TL
52.126	2.022	2-back	0.0	1.0	0.614	s	TR
54.148	2.023	2-back	0.0	1.0	0.595	g	BR
56.171	2.023	2-back	0.0	1.0	0.878	p	BL
58.194	2.023	2-back	1.0	1.0	0.679	f	BR
60.217	2.022	2-back	0.0	1.0	0.58	r	TR
62.239	2.023	2-back	0.0	1.0	0.578	s	BL
64.262	2.023	2-back	1.0	0.0	0.533	z	TR
66.285	2.023	2-back	1.0	0.0	0.671	x	BL
68.308	2.022	2-back	0.0	1.0	0.93	c	TL
70.33	2.023	2-back	0.0	1.0	0.644	r	TR
72.353	2.023	2-back	0.0	1.0	0.541	v	BR
74.376	2.023	2-back	0.0	1.0	0.918	l	TL
76.399	2.022	2-back	1.0	0.0	0.736	c	BR
78.421	2.023	2-back	0.0	1.0	0.601	s	TR
80.444	2.023	2-back	1.0	1.0	0.525	t	BR
82.467	2.022	2-back	0.0	1.0	0.47	r	BL
84.489	2.023	2-back	0.0	1.0	0.502	f	TL
86.512	2.023	2-back	1.0	0.0	0.481	z	BL
88.535	2.023	2-back	0.0	0.0	0.501	l	TR
90.558	2.022	2-back	0.0	0.0	0.777	x	TL
92.58	2.023	2-back	1.0	1.0	0.663	f	TR
94.603	2.023	2-back	0.0	1.0	0.59	g	BR
96.626	2.023	2-back	0.0	1.0	0.488	t	BL
98.649	6.036	2-back	1.0	0.0	0.778	z	BR
104.685	2.023	baseline	n/a	1.0	n/a	blackcross.bmp	n/a
106.708	2.023	baseline	1.0	1.0	0.636	redcross.bmp	n/a
108.731	2.023	baseline	n/a	1.0	n/a	blackcross.bmp	n/a
110.754	2.022	baseline	1.0	1.0	0.536	redcross.bmp	n/a
112.776	2.023	baseline	n/a	1.0	n/a	blackcross.bmp	n/a
114.799	2.023	baseline	n/a	1.0	n/a	blackcross.bmp	n/a
116.822	2.022	baseline	n/a	1.0	n/a	blackcross.bmp	n/a
118.844	2.023	baseline	n/a	1.0	n/a	blackcross.bmp	n/a
120.867	2.023	baseline	1.0	0.0	n/a	redcross.bmp	n/a
122.89	2.023	baseline	n/a	1.0	n/a	blackcross.bmp	n/a
124.913	2.022	baseline	n/a	1.0	n/a	blackcross.bmp	n/a
126.935	4.027	baseline	1.0	1.0	0.502	redcross.bmp	n/a
130.962	1.806	no_response	n/a	1.0	n/a	v	TR
132.768	2.022	1-back	0.0	1.0	0.84	p	TL
134.79	2.023	1-back	0.0	1.0	0.677	z	BL
136.813	2.023	1-back	1.0	1.0	0.471	c	BL
138.836	2.023	1-back	0.0	1.0	0.67	t	TR
140.859	2.022	1-back	0.0	1.0	0.609	l	TL
142.881	2.023	1-back	1.0	1.0	0.555	c	TL
144.904	2.023	1-back	0.0	1.0	0.696	v	BL
146.927	2.022	1-back	0.0	1.0	1.047	n	BR
148.949	2.023	1-back	1.0	1.0	0.73	l	BR
150.972	2.023	1-back	0.0	1.0	0.545	v	TL
152.995	2.023	1-back	0.0	1.0	0.583	c	BR
155.018	2.022	1-back	0.0	1.0	0.549	r	TR
157.04	2.023	1-back	1.0	1.0	0.689	t	TR
159.063	2.023	1-back	0.0	1.0	0.625	n	BL
161.086	2.023	1-back	1.0	1.0	0.396	s	BL
163.109	2.022	1-back	0.0	1.0	0.718	v	TR
165.131	2.023	1-back	0.0	0.0	n/a	p	TL
167.154	2.023	1-back	1.0	1.0	0.864	c	TL
169.177	2.023	1-back	0.0	1.0	0.882	g	TR
171.2	2.022	1-back	1.0	1.0	0.986	z	TR
173.222	2.023	1-back	0.0	1.0	1.11	x	BR
175.245	2.023	1-back	0.0	1.0	1.012	g	BL
177.268	2.023	1-back	0.0	1.0	0.905	l	TL
179.291	2.022	1-back	0.0	0.0	n/a	r	BL
181.313	2.023	1-back	1.0	1.0	0.943	x	BL
183.336	2.023	1-back	0.0	1.0	0.948	f	BR
185.359	2.022	1-back	0.0	1.0	0.928	z	TR
187.381	2.023	1-back	1.0	1.0	1.011	r	TR
189.404	2.023	1-back	0.0	1.0	0.792	f	BL
191.427	2.023	1-back	1.0	1.0	0.932	n	BL
193.45	2.022	1-back	0.0	1.0	0.806	x	TR
195.472	2.023	1-back	1.0	1.0	0.573	t	TR
197.495	2.023	1-back	0.0	1.0	0.752	p	BR
199.518	2.023	1-back	1.0	1.0	0.638	x	BR
201.541	2.022	1-back	0.0	1.0	0.745	t	TL
203.563	2.023	1-back	1.0	1.0	0.742	s	TL
205.586	2.023	1-back	0.0	1.0	0.777	f	BL
207.609	2.023	1-back	0.0	1.0	0.765	l	BR
209.632	2.022	1-back	1.0	1.0	0.807	g	BR
211.654	2.023	1-back	0.0	1.0	0.668	n	TL
213.677	2.023	1-back	0.0	1.0	0.536	s	TR
215.7	2.022	1-back	0.0	1.0	0.736	p	BR
217.722	2.023	1-back	0.0	1.0	0.667	r	TL
219.745	2.023	1-back	1.0	1.0	0.899	s	TL
221.768	2.023	1-back	0.0	1.0	0.674	g	BR
223.791	2.022	1-back	1.0	1.0	0.794	z	BR
225.813	6.037	1-back	0.0	1.0	0.605	f	BL
231.85	2.023	baseline	n/a	1.0	n/a	blackcross.bmp	n/a
233.873	2.039	baseline	1.0	1.0	0.515	redcross.bmp	n/a
235.912	2.023	baseline	n/a	1.0	n/a	blackcross.bmp	n/a
237.935	2.039	baseline	1.0	1.0	0.568	redcross.bmp	n/a
239.974	2.024	baseline	n/a	1.0	n/a	blackcross.bmp	n/a
241.998	2.023	baseline	n/a	1.0	n/a	blackcross.bmp	n/a
244.021	2.038	baseline	1.0	1.0	0.479	redcross.bmp	n/a
246.059	2.023	baseline	n/a	1.0	n/a	blackcross.bmp	n/a
248.082	2.023	baseline	n/a	1.0	n/a	blackcross.bmp	n/a
250.105	2.039	baseline	n/a	1.0	n/a	blackcross.bmp	n/a
252.144	2.04	baseline	1.0	1.0	0.677	redcross.bmp	n/a
254.184	2.0	baseline	n/a	1.0	n/a	blackcross.bmp	n/a
