onset	duration	trial_type	correct_response	accuracy	response_time	stimulus	position
4.015	1.805	no_response	n/a	1.0	n/a	r	TR
5.82	1.806	no_response	n/a	1.0	n/a	p	BL
7.626	2.006	2-back	0.0	1.0	0.754	s	BL
9.632	2.006	2-back	1.0	1.0	0.902	p	TR
11.638	2.006	2-back	0.0	1.0	0.646	c	TL
13.644	2.006	2-back	0.0	1.0	1.161	g	TL
15.65	2.006	2-back	1.0	1.0	0.823	c	BL
17.656	2.006	2-back	0.0	1.0	0.717	f	TR
19.662	2.006	2-back	0.0	1.0	0.822	x	TR
21.668	2.006	2-back	0.0	1.0	0.681	z	TL
23.674	2.006	2-back	1.0	1.0	0.691	x	BR
25.68	2.006	2-back	0.0	1.0	0.682	g	BL
27.686	2.006	2-back	0.0	1.0	0.793	v	TL
29.692	2.006	2-back	1.0	1.0	0.69	g	TL
31.698	2.006	2-back	1.0	1.0	0.796	v	TR
33.704	2.006	2-back	0.0	1.0	0.501	z	BR
35.71	2.006	2-back	0.0	1.0	0.552	n	TL
37.716	2.006	2-back	1.0	0.0	0.872	z	TL
39.722	2.006	2-back	0.0	0.0	0.674	s	BL
41.728	2.006	2-back	1.0	1.0	0.666	z	BR
43.734	2.006	2-back	0.0	1.0	0.432	t	TL
45.74	2.006	2-back	0.0	1.0	0.538	f	BL
47.746	2.006	2-back	1.0	1.0	0.619	t	BR
49.752	2.006	2-back	0.0	1.0	0.749	r	BR
51.758	2.006	2-back	0.0	1.0	0.673	c	TR
53.764	2.006	2-back	1.0	1.0	0.682	r	BL
55.77	2.006	2-back	0.0	1.0	0.531	f	BR
57.776	2.006	2-back	0.0	1.0	0.973	t	TR
59.782	2.006	2-back	1.0	1.0	0.755	f	BL
61.788	2.006	2-back	0.0	1.0	0.721	c	BR
63.794	2.006	2-back	0.0	1.0	0.842	l	BR
65.8	2.006	2-back	0.0	1.0	0.75	n	TR
67.806	2.006	2-back	1.0	1.0	0.618	l	TL
69.812	2.006	2-back	0.0	1.0	0.561	s	BR
71.818	2.006	2-back	0.0	1.0	0.655	g	TR
73.824	2.006	2-back	1.0	0.0	0.977	s	TL
75.83	2.006	2-back	0.0	1.0	0.767	l	BL
77.836	2.006	2-back	0.0	1.0	0.609	r	TR
79.842	2.006	2-back	0.0	1.0	0.691	x	BR
81.848	2.006	2-back	0.0	1.0	0.597	t	TL
83.854	2.006	2-back	1.0	1.0	0.667	x	TR
85.86	2.006	2-back	0.0	1.0	0.621	n	BL
87.866	2.006	2-back	0.0	1.0	0.761	p	BR
89.872	2.006	2-back	1.0	1.0	0.672	n	TR
91.878	2.006	2-back	1.0	1.0	0.86	p	BL
93.884	2.006	2-back	0.0	1.0	0.644	v	BL
95.89	2.006	2-back	0.0	1.0	0.801	l	TL
97.896	6.02	2-back	1.0	1.0	0.691	v	BR
103.916	2.023	baseline	n/a	1.0	n/a	blackcross.bmp	n/a
105.939	2.023	baseline	1.0	1.0	0.274	redcross.bmp	n/a
107.962	2.022	baseline	n/a	1.0	n/a	blackcross.bmp	n/a
109.984	2.023	baseline	n/a	1.0	n/a	blackcross.bmp	n/a
112.007	2.023	baseline	n/a	1.0	n/a	blackcross.bmp	n/a
114.03	2.023	baseline	1.0	1.0	0.355	redcross.bmp	n/a
116.053	2.022	baseline	n/a	1.0	n/a	blackcross.bmp	n/a
118.075	2.023	baseline	n/a	1.0	n/a	blackcross.bmp	n/a
120.098	2.023	baseline	1.0	1.0	0.439	redcross.bmp	n/a
122.121	2.023	baseline	1.0	1.0	0.588	redcross.bmp	n/a
124.144	2.022	baseline	n/a	1.0	n/a	blackcross.bmp	n/a
126.166	6.033	baseline	n/a	1.0	n/a	blackcross.bmp	n/a
132.199	1.805	no_response	n/a	1.0	n/a	c	TR
134.004	2.006	1-back	0.0	1.0	0.598	g	BL
136.01	2.006	1-back	0.0	1.0	0.812	p	TR
138.016	2.006	1-back	1.0	1.0	0.599	p	BL
140.022	2.007	1-back	0.0	1.0	0.536	t	TL
142.029	2.006	1-back	0.0	1.0	0.74	v	BR
144.035	2.006	1-back	1.0	1.0	0.673	v	TL
146.041	2.006	1-back	0.0	1.0	0.596	s	BL
148.047	2.006	1-back	1.0	1.0	0.598	s	TR
150.053	2.006	1-back	0.0	1.0	0.572	x	BR
152.059	2.006	1-back	0.0	1.0	0.693	n	TL
154.065	2.006	1-back	1.0	1.0	0.532	n	BR
156.071	2.006	1-back	0.0	1.0	0.52	f	TR
158.077	2.006	1-back	1.0	1.0	0.573	f	TL
160.083	2.006	1-back	0.0	1.0	0.594	l	TR
162.089	2.006	1-back	0.0	1.0	0.696	r	BL
164.095	2.006	1-back	0.0	1.0	0.614	z	TR
166.101	2.006	1-back	1.0	1.0	0.499	z	TL
168.107	2.006	1-back	0.0	1.0	0.565	c	TR
170.113	2.006	1-back	1.0	1.0	0.582	c	BL
172.119	2.006	1-back	0.0	1.0	0.774	g	TR
174.125	2.006	1-back	1.0	1.0	0.619	g	BR
176.131	2.006	1-back	0.0	1.0	0.643	x	BL
178.137	2.006	1-back	0.0	1.0	0.677	t	TL
180.143	2.006	1-back	1.0	1.0	0.612	t	BL
182.149	2.006	1-back	0.0	1.0	0.514	r	BR
184.155	2.006	1-back	0.0	1.0	0.53	p	BL
186.161	2.006	1-back	0.0	1.0	0.645	v	TL
188.167	2.006	1-back	0.0	1.0	0.638	s	TR
190.173	2.006	1-back	1.0	1.0	0.654	s	BR
192.179	2.006	1-back	0.0	1.0	0.53	x	BL
194.185	2.006	1-back	1.0	1.0	0.61	x	TL
196.191	2.006	1-back	0.0	1.0	0.548	l	TR
198.197	2.006	1-back	1.0	1.0	0.847	l	BL
200.203	2.006	1-back	0.0	1.0	0.521	n	BR
202.209	2.006	1-back	1.0	1.0	0.605	n	TL
204.215	2.006	1-back	0.0	1.0	0.584	z	BR
206.221	2.006	1-back	1.0	1.0	0.554	z	TL
208.227	2.006	1-back	0.0	1.0	0.523	c	BR
210.233	2.006	1-back	0.0	1.0	0.827	g	BL
212.239	2.006	1-back	0.0	1.0	0.693	p	TL
214.245	2.006	1-back	0.0	1.0	0.709	t	TR
216.251	2.006	1-back	0.0	1.0	0.658	v	BR
218.257	2.006	1-back	0.0	1.0	0.65	f	TL
220.263	2.006	1-back	1.0	1.0	0.557	f	TR
222.269	2.006	1-back	0.0	1.0	0.604	l	BR
224.275	2.006	1-back	0.0	1.0	0.626	r	BL
226.281	6.02	1-back	1.0	1.0	0.672	r	BR
232.301	2.023	baseline	1.0	1.0	0.525	redcross.bmp	n/a
234.324	2.022	baseline	n/a	1.0	n/a	blackcross.bmp	n/a
236.346	2.023	baseline	1.0	1.0	0.373	redcross.bmp	n/a
238.369	2.023	baseline	n/a	1.0	n/a	blackcross.bmp	n/a
240.392	2.023	baseline	n/a	1.0	n/a	blackcross.bmp	n/a
242.415	2.022	baseline	1.0	1.0	0.531	redcross.bmp	n/a
244.437	2.023	baseline	n/a	1.0	n/a	blackcross.bmp	n/a
246.46	2.023	baseline	1.0	1.0	0.525	redcross.bmp	n/a
248.483	2.023	baseline	n/a	1.0	n/a	blackcross.bmp	n/a
250.506	2.022	baseline	n/a	1.0	n/a	blackcross.bmp	n/a
252.528	2.023	baseline	n/a	1.0	n/a	blackcross.bmp	n/a
254.551	2.0	baseline	n/a	1.0	n/a	blackcross.bmp	n/a
