onset	duration	trial_type	correct_response	accuracy	response_time	stimulus	position
4.015	1.805	no_response	n/a	1.0	n/a	t	TR
5.82	2.023	1-back	0.0	1.0	0.654	c	BR
7.843	2.023	1-back	0.0	1.0	0.821	n	BL
9.866	2.022	1-back	1.0	1.0	0.779	l	BL
11.888	2.023	1-back	0.0	1.0	0.568	g	TR
13.911	2.023	1-back	0.0	1.0	0.719	f	TL
15.934	2.022	1-back	1.0	1.0	0.432	p	TL
17.956	2.023	1-back	0.0	1.0	0.585	x	TR
19.979	2.023	1-back	1.0	1.0	0.667	n	TR
22.002	2.023	1-back	0.0	1.0	0.689	s	TL
24.025	2.022	1-back	0.0	1.0	0.742	r	BR
26.047	2.023	1-back	1.0	1.0	0.619	v	BR
28.07	2.023	1-back	0.0	1.0	0.671	l	TL
30.093	2.023	1-back	1.0	1.0	0.593	z	TL
32.116	2.022	1-back	0.0	1.0	0.693	c	TR
34.138	2.023	1-back	0.0	1.0	0.518	f	BL
36.161	2.023	1-back	0.0	1.0	0.819	p	TR
38.184	2.022	1-back	1.0	1.0	0.521	t	TR
40.206	2.023	1-back	0.0	1.0	0.69	g	BL
42.229	2.023	1-back	1.0	0.0	0.899	x	BL
44.252	2.023	1-back	0.0	1.0	0.91	c	TR
46.275	2.022	1-back	1.0	0.0	1.182	p	TR
48.297	2.023	1-back	0.0	1.0	0.831	z	TL
50.32	2.023	1-back	0.0	1.0	0.658	r	BL
52.343	2.023	1-back	1.0	1.0	0.471	n	BL
54.366	2.022	1-back	0.0	1.0	0.548	z	BR
56.388	2.023	1-back	0.0	1.0	0.681	f	BL
58.411	2.023	1-back	0.0	0.0	0.987	s	TL
60.434	2.023	1-back	0.0	1.0	0.874	v	BR
62.457	2.022	1-back	1.0	1.0	0.551	c	BR
64.479	2.023	1-back	0.0	1.0	0.751	z	TL
66.502	2.023	1-back	1.0	1.0	0.648	r	TL
68.525	2.022	1-back	0.0	1.0	0.648	l	TR
70.547	2.023	1-back	1.0	1.0	0.489	n	TR
72.57	2.023	1-back	0.0	1.0	0.546	v	BR
74.593	2.023	1-back	1.0	1.0	0.602	f	BR
76.616	2.022	1-back	0.0	1.0	0.782	r	TL
78.638	2.023	1-back	1.0	1.0	0.551	l	TL
80.661	2.023	1-back	0.0	1.0	0.74	x	BR
82.684	2.023	1-back	0.0	1.0	0.809	s	BL
84.707	2.022	1-back	0.0	1.0	0.654	g	TL
86.729	2.023	1-back	0.0	1.0	0.871	t	BL
88.752	2.023	1-back	0.0	1.0	0.769	p	BR
90.775	2.022	1-back	0.0	1.0	0.82	s	BL
92.797	2.023	1-back	1.0	1.0	0.539	x	BL
94.82	2.023	1-back	0.0	1.0	0.604	v	TR
96.843	2.023	1-back	0.0	1.0	0.733	t	BR
98.866	6.036	1-back	1.0	1.0	1.042	g	BR
104.902	2.023	baseline	n/a	1.0	n/a	blackcross.bmp	n/a
106.925	2.023	baseline	1.0	1.0	0.334	redcross.bmp	n/a
108.948	2.023	baseline	n/a	1.0	n/a	blackcross.bmp	n/a
110.971	2.022	baseline	1.0	1.0	0.281	redcross.bmp	n/a
112.993	2.023	baseline	1.0	1.0	0.365	redcross.bmp	n/a
115.016	2.023	baseline	n/a	1.0	n/a	blackcross.bmp	n/a
117.039	2.022	baseline	n/a	1.0	n/a	blackcross.bmp	n/a
119.061	2.023	baseline	n/a	1.0	n/a	blackcross.bmp	n/a
121.084	2.023	baseline	n/a	1.0	n/a	blackcross.bmp	n/a
123.107	2.023	baseline	1.0	1.0	0.313	redcross.bmp	n/a
125.13	2.022	baseline	n/a	1.0	n/a	blackcross.bmp	n/a
127.152	6.033	baseline	n/a	1.0	n/a	blackcross.bmp	n/a
133.185	1.806	no_response	n/a	1.0	n/a	r	TL
134.991	1.805	no_response	n/a	1.0	n/a	p	TR
136.796	2.023	2-back	0.0	1.0	0.666	x	BL
138.819	2.022	2-back	1.0	1.0	0.549	t	TR
140.841	2.023	2-back	0.0	1.0	0.769	g	TL
142.864	2.023	2-back	0.0	1.0	0.887	n	BL
144.887	2.023	2-back	1.0	1.0	0.791	z	TL
146.91	2.022	2-back	0.0	1.0	0.558	c	TR
148.932	2.023	2-back	0.0	1.0	0.763	v	BR
150.955	2.023	2-back	0.0	1.0	0.741	n	BL
152.978	2.023	2-back	1.0	1.0	0.38	g	BR
155.001	2.022	2-back	0.0	1.0	0.741	s	TL
157.023	2.023	2-back	0.0	1.0	0.793	v	TR
159.046	2.023	2-back	1.0	1.0	0.672	l	TL
161.069	2.022	2-back	1.0	0.0	0.695	f	TR
163.091	2.023	2-back	0.0	1.0	0.858	s	BR
165.114	2.023	2-back	0.0	1.0	0.95	c	TL
167.137	2.023	2-back	0.0	1.0	0.731	r	BL
169.16	2.022	2-back	1.0	1.0	0.738	s	TL
171.182	2.023	2-back	0.0	1.0	0.788	l	BR
173.205	2.023	2-back	0.0	1.0	0.854	z	BL
175.228	2.023	2-back	1.0	1.0	0.526	x	BR
177.251	2.022	2-back	0.0	1.0	0.82	f	TL
179.273	2.023	2-back	0.0	1.0	0.914	t	TL
181.296	2.023	2-back	0.0	1.0	1.105	x	BR
183.319	2.022	2-back	1.0	1.0	0.714	r	TL
185.341	2.023	2-back	1.0	0.0	0.947	l	BR
187.364	2.023	2-back	0.0	1.0	1.059	n	BL
189.387	2.023	2-back	1.0	1.0	0.707	s	BR
191.41	2.022	2-back	0.0	1.0	0.922	f	BR
193.432	2.023	2-back	0.0	1.0	0.864	g	BL
195.455	2.023	2-back	0.0	1.0	0.915	p	TR
197.478	2.023	2-back	1.0	1.0	0.795	v	BL
199.501	2.022	2-back	1.0	1.0	0.857	t	TR
201.523	2.023	2-back	1.0	0.0	0.784	t	BL
203.546	2.023	2-back	0.0	1.0	0.617	z	TL
205.569	2.022	2-back	0.0	1.0	0.754	f	TR
207.591	2.023	2-back	1.0	1.0	0.719	p	TL
209.614	2.023	2-back	1.0	1.0	0.787	g	TR
211.637	2.023	2-back	0.0	1.0	0.703	c	BL
213.66	2.022	2-back	1.0	0.0	0.917	r	TR
215.682	2.023	2-back	0.0	1.0	0.861	p	BR
217.705	2.023	2-back	1.0	1.0	0.596	x	TR
219.728	2.023	2-back	0.0	1.0	0.786	l	TR
221.751	2.022	2-back	0.0	0.0	0.881	z	BL
223.773	2.023	2-back	0.0	1.0	0.825	c	BR
225.796	2.023	2-back	1.0	1.0	0.668	n	BL
227.819	6.037	2-back	1.0	1.0	0.889	v	BR
233.856	2.022	baseline	1.0	1.0	0.937	redcross.bmp	n/a
235.878	2.023	baseline	n/a	1.0	n/a	blackcross.bmp	n/a
237.901	2.023	baseline	n/a	1.0	n/a	blackcross.bmp	n/a
239.924	2.022	baseline	n/a	1.0	n/a	blackcross.bmp	n/a
241.946	2.023	baseline	1.0	1.0	0.299	redcross.bmp	n/a
243.969	2.023	baseline	n/a	1.0	n/a	blackcross.bmp	n/a
245.992	2.023	baseline	n/a	1.0	n/a	blackcross.bmp	n/a
248.015	2.022	baseline	1.0	1.0	0.341	redcross.bmp	n/a
250.037	2.023	baseline	n/a	1.0	n/a	blackcross.bmp	n/a
252.06	2.023	baseline	n/a	1.0	n/a	blackcross.bmp	n/a
254.083	2.023	baseline	1.0	1.0	0.353	redcross.bmp	n/a
256.106	2.0	baseline	n/a	1.0	n/a	blackcross.bmp	n/a
