onset	duration	trial_type	correct_response	accuracy	response_time	stimulus	position
4.021	1.799	no_response	n/a	1.0	n/a	l	TR
5.82	1.999	1-back	1.0	1.0	0.811	x	TR
7.819	1.999	1-back	0.0	1.0	0.726	l	BL
9.818	1.999	1-back	1.0	1.0	0.603	s	BL
11.817	2.0	1-back	0.0	1.0	0.684	g	TL
13.817	1.999	1-back	0.0	1.0	0.614	r	BR
15.816	1.999	1-back	0.0	1.0	0.552	s	TL
17.815	1.999	1-back	0.0	1.0	0.719	z	BL
19.814	2.0	1-back	0.0	1.0	0.729	t	TR
21.814	1.999	1-back	1.0	1.0	0.521	x	TR
23.813	1.999	1-back	0.0	1.0	0.524	n	BR
25.812	1.999	1-back	0.0	1.0	0.526	l	TL
27.811	1.999	1-back	1.0	1.0	0.539	g	TL
29.81	2.0	1-back	0.0	1.0	0.522	r	BR
31.81	1.999	1-back	1.0	1.0	0.657	p	BR
33.809	1.999	1-back	0.0	1.0	0.565	z	TR
35.808	1.999	1-back	0.0	1.0	0.576	r	BL
37.807	2.0	1-back	1.0	1.0	0.546	x	BL
39.807	1.999	1-back	0.0	1.0	0.528	p	TR
41.806	1.999	1-back	0.0	1.0	0.656	c	BL
43.805	1.999	1-back	0.0	1.0	0.52	f	TR
45.804	2.0	1-back	1.0	1.0	0.541	l	TR
47.804	1.999	1-back	1.0	1.0	0.897	t	TR
49.803	1.999	1-back	0.0	1.0	0.564	f	TL
51.802	1.999	1-back	0.0	1.0	0.563	r	BL
53.801	1.999	1-back	1.0	1.0	0.58	s	BL
55.8	2.0	1-back	0.0	1.0	0.565	f	TR
57.8	1.999	1-back	0.0	1.0	0.517	c	BR
59.799	1.999	1-back	1.0	1.0	0.549	z	BR
61.798	1.999	1-back	0.0	1.0	0.55	v	BL
63.797	2.0	1-back	0.0	1.0	0.599	p	TL
65.797	1.999	1-back	1.0	1.0	0.518	t	TL
67.796	1.999	1-back	0.0	1.0	0.477	c	BL
69.795	1.999	1-back	0.0	1.0	0.546	p	BR
71.794	1.999	1-back	0.0	1.0	0.466	v	TL
73.793	2.0	1-back	1.0	1.0	0.515	n	TL
75.793	1.999	1-back	0.0	1.0	0.488	s	BR
77.792	1.999	1-back	1.0	1.0	0.526	z	BR
79.791	1.999	1-back	0.0	1.0	0.619	v	BL
81.79	2.0	1-back	0.0	1.0	0.65	n	BR
83.79	1.999	1-back	0.0	1.0	0.602	t	TL
85.789	1.999	1-back	1.0	1.0	0.561	g	TL
87.788	1.999	1-back	0.0	1.0	0.604	x	TR
89.787	1.999	1-back	1.0	1.0	0.594	g	TR
91.786	2.0	1-back	0.0	1.0	0.567	c	TL
93.786	1.999	1-back	0.0	1.0	0.588	v	BL
95.785	1.999	1-back	0.0	1.0	0.477	f	BR
97.784	6.038	1-back	1.0	1.0	0.621	n	BR
103.822	2.039	baseline	n/a	1.0	n/a	blackcross.bmp	n/a
105.861	2.039	baseline	n/a	1.0	n/a	blackcross.bmp	n/a
107.9	2.039	baseline	1.0	1.0	0.448	redcross.bmp	n/a
109.939	2.039	baseline	1.0	1.0	0.468	redcross.bmp	n/a
111.978	2.04	baseline	n/a	1.0	n/a	blackcross.bmp	n/a
114.018	2.039	baseline	n/a	1.0	n/a	blackcross.bmp	n/a
116.057	2.039	baseline	n/a	1.0	n/a	blackcross.bmp	n/a
118.096	2.039	baseline	n/a	1.0	n/a	blackcross.bmp	n/a
120.135	2.039	baseline	1.0	1.0	0.45	redcross.bmp	n/a
122.174	2.04	baseline	n/a	1.0	n/a	blackcross.bmp	n/a
124.214	2.039	baseline	1.0	1.0	0.415	redcross.bmp	n/a
126.253	6.038	baseline	n/a	1.0	n/a	blackcross.bmp	n/a
132.291	1.799	no_response	n/a	1.0	n/a	v	BL
134.09	1.799	no_response	n/a	1.0	n/a	c	BR
135.889	2.0	2-back	1.0	1.0	0.668	g	BL
137.889	1.999	2-back	0.0	1.0	0.547	p	TR
139.888	1.999	2-back	0.0	1.0	0.697	n	TL
141.887	1.999	2-back	1.0	1.0	0.661	x	TR
143.886	1.999	2-back	0.0	1.0	0.561	p	BL
145.885	2.0	2-back	0.0	1.0	0.646	c	TL
147.885	1.999	2-back	0.0	1.0	0.615	l	TL
149.884	1.999	2-back	0.0	1.0	0.672	v	TR
151.883	1.999	2-back	1.0	1.0	0.704	x	TL
153.882	2.0	2-back	1.0	1.0	0.85	g	TR
155.882	1.999	2-back	0.0	1.0	0.577	t	BR
157.881	1.999	2-back	0.0	1.0	0.556	z	BL
159.88	1.999	2-back	1.0	1.0	0.559	n	BR
161.879	1.999	2-back	0.0	1.0	0.563	f	TR
163.878	2.0	2-back	0.0	1.0	0.628	x	TL
165.878	1.999	2-back	0.0	1.0	0.573	n	BL
167.877	1.999	2-back	1.0	1.0	0.555	t	TL
169.876	1.999	2-back	0.0	1.0	0.663	l	BR
171.875	2.0	2-back	0.0	0.0	0.749	r	BL
173.875	1.999	2-back	1.0	1.0	0.709	f	BR
175.874	1.999	2-back	0.0	1.0	0.647	s	BR
177.873	1.999	2-back	0.0	1.0	0.587	v	TL
179.872	1.999	2-back	0.0	1.0	0.628	n	TR
181.871	2.0	2-back	1.0	1.0	0.536	p	TL
183.871	1.999	2-back	0.0	1.0	0.536	s	BL
185.87	1.999	2-back	0.0	1.0	0.55	g	BR
187.869	1.999	2-back	1.0	1.0	0.525	f	BL
189.868	2.0	2-back	0.0	1.0	0.537	r	TR
191.868	1.999	2-back	0.0	1.0	0.55	s	TL
193.867	1.999	2-back	0.0	1.0	0.553	z	BL
195.866	1.999	2-back	1.0	1.0	0.581	c	TL
197.865	1.999	2-back	0.0	1.0	0.572	r	BR
199.864	2.0	2-back	0.0	1.0	0.583	v	TR
201.864	1.999	2-back	1.0	1.0	0.57	l	BR
203.863	1.999	2-back	1.0	1.0	0.629	c	TR
205.862	1.999	2-back	0.0	1.0	0.591	s	BL
207.861	2.0	2-back	0.0	1.0	0.598	t	TL
209.861	1.999	2-back	0.0	1.0	0.543	r	TR
211.86	1.999	2-back	0.0	1.0	0.638	z	BL
213.859	1.999	2-back	1.0	1.0	0.627	l	TR
215.858	1.999	2-back	1.0	1.0	0.622	x	BL
217.857	2.0	2-back	0.0	1.0	0.625	f	BR
219.857	1.999	2-back	0.0	1.0	0.629	p	TR
221.856	1.999	2-back	1.0	1.0	0.619	g	BR
223.855	1.999	2-back	0.0	1.0	0.595	t	BL
225.854	6.038	2-back	1.0	1.0	0.624	z	BR
231.892	2.039	baseline	n/a	1.0	n/a	blackcross.bmp	n/a
233.931	2.039	baseline	n/a	1.0	n/a	blackcross.bmp	n/a
235.97	2.039	baseline	1.0	1.0	0.611	redcross.bmp	n/a
238.009	2.04	baseline	1.0	1.0	0.471	redcross.bmp	n/a
240.049	2.039	baseline	n/a	1.0	n/a	blackcross.bmp	n/a
242.088	2.039	baseline	n/a	1.0	n/a	blackcross.bmp	n/a
244.127	2.039	baseline	n/a	1.0	n/a	blackcross.bmp	n/a
246.166	2.039	baseline	1.0	1.0	0.46	redcross.bmp	n/a
248.205	2.04	baseline	n/a	1.0	n/a	blackcross.bmp	n/a
250.245	2.039	baseline	1.0	1.0	0.388	redcross.bmp	n/a
252.284	2.039	baseline	n/a	1.0	n/a	blackcross.bmp	n/a
254.323	2.0	baseline	n/a	1.0	n/a	blackcross.bmp	n/a
