onset	duration	trial_type	correct_response	accuracy	response_time	stimulus	position
4.015	1.805	no_response	n/a	1.0	n/a	r	TR
5.82	1.806	no_response	n/a	1.0	n/a	p	BL
7.626	2.006	2-back	0.0	1.0	0.638	s	BL
9.632	2.006	2-back	1.0	1.0	0.478	p	TR
11.638	2.006	2-back	0.0	1.0	0.368	c	TL
13.644	2.006	2-back	0.0	1.0	0.407	g	TL
15.65	2.006	2-back	1.0	1.0	0.494	c	BL
17.656	2.006	2-back	0.0	1.0	0.368	f	TR
19.662	2.006	2-back	0.0	1.0	0.476	x	TR
21.668	2.006	2-back	0.0	1.0	0.406	z	TL
23.674	2.006	2-back	1.0	1.0	0.569	x	BR
25.68	2.006	2-back	0.0	1.0	0.49	g	BL
27.686	2.006	2-back	0.0	1.0	0.34	v	TL
29.692	2.006	2-back	1.0	1.0	0.41	g	TL
31.698	2.006	2-back	1.0	0.0	0.465	v	TR
33.704	2.006	2-back	0.0	1.0	0.717	z	BR
35.71	2.006	2-back	0.0	1.0	0.619	n	TL
37.716	2.006	2-back	1.0	1.0	0.584	z	TL
39.722	2.006	2-back	0.0	1.0	0.584	s	BL
41.728	2.006	2-back	1.0	0.0	0.701	z	BR
43.734	2.006	2-back	0.0	1.0	0.471	t	TL
45.74	2.006	2-back	0.0	1.0	0.628	f	BL
47.746	2.006	2-back	1.0	1.0	0.406	t	BR
49.752	2.006	2-back	0.0	1.0	0.554	r	BR
51.758	2.006	2-back	0.0	1.0	0.596	c	TR
53.764	2.006	2-back	1.0	1.0	0.362	r	BL
55.77	2.006	2-back	0.0	1.0	0.364	f	BR
57.776	2.006	2-back	0.0	1.0	0.379	t	TR
59.782	2.006	2-back	1.0	1.0	0.791	f	BL
61.788	2.006	2-back	0.0	1.0	0.479	c	BR
63.794	2.006	2-back	0.0	1.0	0.615	l	BR
65.8	2.006	2-back	0.0	1.0	0.626	n	TR
67.806	2.006	2-back	1.0	1.0	0.625	l	TL
69.812	2.006	2-back	0.0	1.0	0.356	s	BR
71.818	2.006	2-back	0.0	1.0	0.472	g	TR
73.824	2.006	2-back	1.0	1.0	0.642	s	TL
75.83	2.007	2-back	0.0	1.0	0.49	l	BL
77.837	2.005	2-back	0.0	1.0	0.465	r	TR
79.842	2.007	2-back	0.0	1.0	0.403	x	BR
81.849	2.006	2-back	0.0	1.0	0.481	t	TL
83.855	2.006	2-back	1.0	1.0	0.455	x	TR
85.861	2.006	2-back	0.0	1.0	0.376	n	BL
87.867	2.006	2-back	0.0	1.0	0.451	p	BR
89.873	2.006	2-back	1.0	0.0	0.652	n	TR
91.879	2.006	2-back	1.0	0.0	0.92	p	BL
93.885	2.006	2-back	0.0	1.0	0.612	v	BL
95.891	2.006	2-back	0.0	1.0	0.744	l	TL
97.897	6.02	2-back	1.0	1.0	0.753	v	BR
103.917	2.022	baseline	n/a	1.0	n/a	blackcross.bmp	n/a
105.939	2.023	baseline	1.0	1.0	0.394	redcross.bmp	n/a
107.962	2.023	baseline	n/a	1.0	n/a	blackcross.bmp	n/a
109.985	2.023	baseline	n/a	1.0	n/a	blackcross.bmp	n/a
112.008	2.022	baseline	n/a	1.0	n/a	blackcross.bmp	n/a
114.03	2.023	baseline	1.0	1.0	0.299	redcross.bmp	n/a
116.053	2.023	baseline	n/a	1.0	n/a	blackcross.bmp	n/a
118.076	2.023	baseline	n/a	1.0	n/a	blackcross.bmp	n/a
120.099	2.022	baseline	1.0	1.0	0.313	redcross.bmp	n/a
122.121	2.04	baseline	1.0	1.0	0.496	redcross.bmp	n/a
124.161	2.023	baseline	n/a	1.0	n/a	blackcross.bmp	n/a
126.184	6.032	baseline	n/a	1.0	n/a	blackcross.bmp	n/a
132.216	1.806	no_response	n/a	1.0	n/a	c	TR
134.022	2.006	1-back	0.0	1.0	0.624	g	BL
136.028	2.006	1-back	0.0	1.0	0.472	p	TR
138.034	2.006	1-back	1.0	1.0	0.52	p	BL
140.04	2.006	1-back	0.0	1.0	0.518	t	TL
142.046	2.006	1-back	0.0	1.0	0.47	v	BR
144.052	2.006	1-back	1.0	1.0	0.421	v	TL
146.058	2.006	1-back	0.0	1.0	0.489	s	BL
148.064	2.006	1-back	1.0	1.0	0.355	s	TR
150.07	2.006	1-back	0.0	1.0	0.489	x	BR
152.076	2.006	1-back	0.0	1.0	0.484	n	TL
154.082	2.006	1-back	1.0	1.0	0.539	n	BR
156.088	2.006	1-back	0.0	1.0	0.437	f	TR
158.094	2.006	1-back	1.0	1.0	0.52	f	TL
160.1	2.006	1-back	0.0	1.0	0.399	l	TR
162.106	2.006	1-back	0.0	1.0	0.518	r	BL
164.112	2.006	1-back	0.0	1.0	0.495	z	TR
166.118	2.006	1-back	1.0	1.0	0.551	z	TL
168.124	2.006	1-back	0.0	1.0	0.436	c	TR
170.13	2.006	1-back	1.0	1.0	0.465	c	BL
172.136	2.006	1-back	0.0	1.0	0.443	g	TR
174.142	2.006	1-back	1.0	1.0	0.464	g	BR
176.148	2.006	1-back	0.0	1.0	0.44	x	BL
178.154	2.006	1-back	0.0	1.0	0.379	t	TL
180.16	2.006	1-back	1.0	1.0	0.348	t	BL
182.166	2.006	1-back	0.0	1.0	0.422	r	BR
184.172	2.006	1-back	0.0	1.0	0.431	p	BL
186.178	2.006	1-back	0.0	1.0	0.465	v	TL
188.184	2.006	1-back	0.0	1.0	0.473	s	TR
190.19	2.006	1-back	1.0	1.0	0.373	s	BR
192.196	2.006	1-back	0.0	1.0	0.369	x	BL
194.202	2.006	1-back	1.0	1.0	0.36	x	TL
196.208	2.006	1-back	0.0	1.0	0.397	l	TR
198.214	2.006	1-back	1.0	1.0	0.512	l	BL
200.22	2.006	1-back	0.0	1.0	0.381	n	BR
202.226	2.006	1-back	1.0	1.0	0.324	n	TL
204.232	2.006	1-back	0.0	1.0	0.367	z	BR
206.238	2.006	1-back	1.0	1.0	0.374	z	TL
208.244	2.006	1-back	0.0	1.0	0.307	c	BR
210.25	2.006	1-back	0.0	0.0	0.509	g	BL
212.256	2.006	1-back	0.0	1.0	0.504	p	TL
214.262	2.006	1-back	0.0	1.0	0.476	t	TR
216.268	2.006	1-back	0.0	1.0	0.406	v	BR
218.274	2.006	1-back	0.0	1.0	0.433	f	TL
220.28	2.007	1-back	1.0	1.0	0.487	f	TR
222.287	2.006	1-back	0.0	1.0	0.42	l	BR
224.293	2.006	1-back	0.0	1.0	0.44	r	BL
226.299	6.02	1-back	1.0	1.0	0.615	r	BR
232.319	2.022	baseline	1.0	1.0	0.343	redcross.bmp	n/a
234.341	2.023	baseline	n/a	1.0	n/a	blackcross.bmp	n/a
236.364	2.023	baseline	1.0	1.0	0.266	redcross.bmp	n/a
238.387	2.023	baseline	n/a	1.0	n/a	blackcross.bmp	n/a
240.41	2.022	baseline	n/a	1.0	n/a	blackcross.bmp	n/a
242.432	2.023	baseline	1.0	1.0	0.25	redcross.bmp	n/a
244.455	2.023	baseline	n/a	1.0	n/a	blackcross.bmp	n/a
246.478	2.022	baseline	1.0	1.0	0.313	redcross.bmp	n/a
248.5	2.023	baseline	n/a	1.0	n/a	blackcross.bmp	n/a
250.523	2.023	baseline	n/a	1.0	n/a	blackcross.bmp	n/a
252.546	2.023	baseline	n/a	1.0	n/a	blackcross.bmp	n/a
254.569	2.0	baseline	n/a	1.0	n/a	blackcross.bmp	n/a
