onset	duration	trial_type	correct_response	accuracy	response_time	stimulus	position
4.015	1.805	no_response	n/a	1.0	n/a	t	TR
5.82	2.023	1-back	0.0	1.0	0.483	c	BR
7.843	2.023	1-back	0.0	0.0	0.617	n	BL
9.866	2.022	1-back	1.0	1.0	0.608	l	BL
11.888	2.023	1-back	0.0	1.0	0.668	g	TR
13.911	2.023	1-back	0.0	1.0	0.47	f	TL
15.934	2.022	1-back	1.0	1.0	0.543	p	TL
17.956	2.023	1-back	0.0	1.0	0.568	x	TR
19.979	2.023	1-back	1.0	1.0	0.402	n	TR
22.002	2.023	1-back	0.0	1.0	0.466	s	TL
24.025	2.022	1-back	0.0	1.0	0.729	r	BR
26.047	2.023	1-back	1.0	1.0	0.413	v	BR
28.07	2.023	1-back	0.0	1.0	0.423	l	TL
30.093	2.023	1-back	1.0	1.0	0.415	z	TL
32.116	2.022	1-back	0.0	1.0	0.471	c	TR
34.138	2.023	1-back	0.0	1.0	0.543	f	BL
36.161	2.023	1-back	0.0	1.0	0.536	p	TR
38.184	2.023	1-back	1.0	1.0	0.467	t	TR
40.207	2.022	1-back	0.0	1.0	0.395	g	BL
42.229	2.023	1-back	1.0	1.0	0.557	x	BL
44.252	2.023	1-back	0.0	1.0	0.362	c	TR
46.275	2.022	1-back	1.0	0.0	0.412	p	TR
48.297	2.023	1-back	0.0	1.0	0.492	z	TL
50.32	2.023	1-back	0.0	1.0	0.525	r	BL
52.343	2.023	1-back	1.0	1.0	0.381	n	BL
54.366	2.022	1-back	0.0	1.0	0.471	z	BR
56.388	2.023	1-back	0.0	0.0	0.436	f	BL
58.411	2.023	1-back	0.0	1.0	0.633	s	TL
60.434	2.023	1-back	0.0	1.0	0.581	v	BR
62.457	2.022	1-back	1.0	1.0	0.68	c	BR
64.479	2.023	1-back	0.0	1.0	0.474	z	TL
66.502	2.023	1-back	1.0	0.0	0.693	r	TL
68.525	2.023	1-back	0.0	1.0	0.454	l	TR
70.548	2.022	1-back	1.0	1.0	0.5	n	TR
72.57	2.023	1-back	0.0	1.0	0.504	v	BR
74.593	2.023	1-back	1.0	0.0	0.766	f	BR
76.616	2.023	1-back	0.0	1.0	0.444	r	TL
78.639	2.022	1-back	1.0	1.0	0.37	l	TL
80.661	2.023	1-back	0.0	1.0	0.452	x	BR
82.684	2.023	1-back	0.0	1.0	0.532	s	BL
84.707	2.022	1-back	0.0	1.0	0.437	g	TL
86.729	2.023	1-back	0.0	1.0	0.359	t	BL
88.752	2.023	1-back	0.0	1.0	0.496	p	BR
90.775	2.023	1-back	0.0	1.0	0.713	s	BL
92.798	2.022	1-back	1.0	1.0	0.502	x	BL
94.82	2.023	1-back	0.0	1.0	0.46	v	TR
96.843	2.023	1-back	0.0	1.0	0.5	t	BR
98.866	6.037	1-back	1.0	1.0	0.372	g	BR
104.903	2.022	baseline	n/a	1.0	n/a	blackcross.bmp	n/a
106.925	2.023	baseline	1.0	1.0	0.27	redcross.bmp	n/a
108.948	2.023	baseline	n/a	1.0	n/a	blackcross.bmp	n/a
110.971	2.039	baseline	1.0	1.0	0.265	redcross.bmp	n/a
113.01	2.023	baseline	1.0	1.0	0.392	redcross.bmp	n/a
115.033	2.023	baseline	n/a	1.0	n/a	blackcross.bmp	n/a
117.056	2.023	baseline	n/a	1.0	n/a	blackcross.bmp	n/a
119.079	2.022	baseline	n/a	1.0	n/a	blackcross.bmp	n/a
121.101	2.023	baseline	n/a	1.0	n/a	blackcross.bmp	n/a
123.124	2.023	baseline	1.0	1.0	0.376	redcross.bmp	n/a
125.147	2.022	baseline	n/a	1.0	n/a	blackcross.bmp	n/a
127.169	6.033	baseline	n/a	1.0	n/a	blackcross.bmp	n/a
133.202	1.806	no_response	n/a	1.0	n/a	r	TL
135.008	1.805	no_response	n/a	1.0	n/a	p	TR
136.813	2.023	2-back	0.0	1.0	0.341	x	BL
138.836	2.023	2-back	1.0	1.0	0.484	t	TR
140.859	2.022	2-back	0.0	1.0	0.426	g	TL
142.881	2.023	2-back	0.0	1.0	0.753	n	BL
144.904	2.023	2-back	1.0	1.0	0.494	z	TL
146.927	2.022	2-back	0.0	1.0	0.424	c	TR
148.949	2.023	2-back	0.0	1.0	0.394	v	BR
150.972	2.023	2-back	0.0	1.0	0.852	n	BL
152.995	2.023	2-back	1.0	1.0	0.542	g	BR
155.018	2.022	2-back	0.0	1.0	0.425	s	TL
157.04	2.023	2-back	0.0	1.0	0.352	v	TR
159.063	2.023	2-back	1.0	1.0	0.343	l	TL
161.086	2.023	2-back	1.0	1.0	0.78	f	TR
163.109	2.022	2-back	0.0	1.0	0.445	s	BR
165.131	2.023	2-back	0.0	1.0	0.384	c	TL
167.154	2.023	2-back	0.0	1.0	0.401	r	BL
169.177	2.023	2-back	1.0	1.0	0.685	s	TL
171.2	2.022	2-back	0.0	1.0	0.481	l	BR
173.222	2.023	2-back	0.0	0.0	0.599	z	BL
175.245	2.023	2-back	1.0	1.0	0.796	x	BR
177.268	2.022	2-back	0.0	1.0	0.498	f	TL
179.29	2.023	2-back	0.0	0.0	0.751	t	TL
181.313	2.023	2-back	0.0	1.0	0.973	x	BR
183.336	2.023	2-back	1.0	1.0	0.782	r	TL
185.359	2.022	2-back	1.0	1.0	0.576	l	BR
187.381	2.023	2-back	0.0	1.0	0.6	n	BL
189.404	2.023	2-back	1.0	1.0	0.632	s	BR
191.427	2.023	2-back	0.0	1.0	0.661	f	BR
193.45	2.022	2-back	0.0	1.0	0.853	g	BL
195.472	2.023	2-back	0.0	1.0	0.708	p	TR
197.495	2.023	2-back	1.0	1.0	0.61	v	BL
199.518	2.023	2-back	1.0	1.0	0.586	t	TR
201.541	2.022	2-back	1.0	0.0	0.499	t	BL
203.563	2.023	2-back	0.0	1.0	0.671	z	TL
205.586	2.023	2-back	0.0	1.0	0.469	f	TR
207.609	2.023	2-back	1.0	1.0	0.512	p	TL
209.632	2.022	2-back	1.0	1.0	0.555	g	TR
211.654	2.023	2-back	0.0	1.0	0.504	c	BL
213.677	2.023	2-back	1.0	1.0	0.442	r	TR
215.7	2.022	2-back	0.0	1.0	0.466	p	BR
217.722	2.023	2-back	1.0	0.0	n/a	x	TR
219.745	2.023	2-back	0.0	1.0	0.982	l	TR
221.768	2.023	2-back	0.0	1.0	0.879	z	BL
223.791	2.022	2-back	0.0	1.0	0.94	c	BR
225.813	2.023	2-back	1.0	1.0	0.823	n	BL
227.836	6.037	2-back	1.0	1.0	0.723	v	BR
233.873	2.023	baseline	1.0	1.0	0.362	redcross.bmp	n/a
235.896	2.022	baseline	n/a	1.0	n/a	blackcross.bmp	n/a
237.918	2.023	baseline	n/a	1.0	n/a	blackcross.bmp	n/a
239.941	2.023	baseline	n/a	1.0	n/a	blackcross.bmp	n/a
241.964	2.023	baseline	1.0	1.0	0.273	redcross.bmp	n/a
243.987	2.022	baseline	n/a	1.0	n/a	blackcross.bmp	n/a
246.009	2.023	baseline	n/a	1.0	n/a	blackcross.bmp	n/a
248.032	2.023	baseline	1.0	1.0	0.245	redcross.bmp	n/a
250.055	2.022	baseline	n/a	1.0	n/a	blackcross.bmp	n/a
252.077	2.023	baseline	n/a	1.0	n/a	blackcross.bmp	n/a
254.1	2.023	baseline	1.0	1.0	0.317	redcross.bmp	n/a
256.123	2.0	baseline	n/a	1.0	n/a	blackcross.bmp	n/a
