onset	duration	trial_type	correct_response	accuracy	response_time	stimulus	position
4.015	1.805	no_response	n/a	1.0	n/a	t	TR
5.82	2.023	1-back	0.0	1.0	0.485	c	BR
7.843	2.023	1-back	0.0	1.0	0.9	n	BL
9.866	2.023	1-back	1.0	1.0	0.629	l	BL
11.889	2.022	1-back	0.0	1.0	0.472	g	TR
13.911	2.023	1-back	0.0	1.0	0.455	f	TL
15.934	2.023	1-back	1.0	1.0	0.544	p	TL
17.957	2.022	1-back	0.0	1.0	0.69	x	TR
19.979	2.023	1-back	1.0	1.0	0.382	n	TR
22.002	2.023	1-back	0.0	1.0	0.454	s	TL
24.025	2.022	1-back	0.0	1.0	0.927	r	BR
26.047	2.023	1-back	1.0	1.0	0.78	v	BR
28.07	2.023	1-back	0.0	1.0	1.099	l	TL
30.093	2.023	1-back	1.0	1.0	0.408	z	TL
32.116	2.022	1-back	0.0	1.0	0.455	c	TR
34.138	2.023	1-back	0.0	1.0	0.447	f	BL
36.161	2.023	1-back	0.0	1.0	0.316	p	TR
38.184	2.022	1-back	1.0	1.0	0.513	t	TR
40.206	2.023	1-back	0.0	1.0	0.746	g	BL
42.229	2.023	1-back	1.0	1.0	0.502	x	BL
44.252	2.023	1-back	0.0	1.0	0.819	c	TR
46.275	2.022	1-back	1.0	1.0	0.343	p	TR
48.297	2.023	1-back	0.0	1.0	0.528	z	TL
50.32	2.023	1-back	0.0	1.0	0.373	r	BL
52.343	2.022	1-back	1.0	1.0	0.432	n	BL
54.365	2.023	1-back	0.0	1.0	0.591	z	BR
56.388	2.023	1-back	0.0	1.0	0.561	f	BL
58.411	2.023	1-back	0.0	1.0	0.477	s	TL
60.434	2.022	1-back	0.0	1.0	0.302	v	BR
62.456	2.023	1-back	1.0	1.0	0.344	c	BR
64.479	2.023	1-back	0.0	1.0	0.491	z	TL
66.502	2.022	1-back	1.0	1.0	0.376	r	TL
68.524	2.023	1-back	0.0	1.0	0.632	l	TR
70.547	2.023	1-back	1.0	1.0	0.742	n	TR
72.57	2.022	1-back	0.0	1.0	0.539	v	BR
74.592	2.023	1-back	1.0	1.0	0.338	f	BR
76.615	2.023	1-back	0.0	1.0	0.545	r	TL
78.638	2.023	1-back	1.0	1.0	0.437	l	TL
80.661	2.022	1-back	0.0	1.0	0.598	x	BR
82.683	2.023	1-back	0.0	1.0	0.518	s	BL
84.706	2.023	1-back	0.0	1.0	0.682	g	TL
86.729	2.022	1-back	0.0	0.0	0.71	t	BL
88.751	2.023	1-back	0.0	0.0	n/a	p	BR
90.774	2.023	1-back	0.0	1.0	0.575	s	BL
92.797	2.023	1-back	1.0	1.0	0.925	x	BL
94.82	2.022	1-back	0.0	1.0	1.002	v	TR
96.842	2.023	1-back	0.0	1.0	0.741	t	BR
98.865	6.037	1-back	1.0	1.0	0.477	g	BR
104.902	2.022	baseline	n/a	1.0	n/a	blackcross.bmp	n/a
106.924	2.023	baseline	1.0	1.0	0.409	redcross.bmp	n/a
108.947	2.023	baseline	n/a	1.0	n/a	blackcross.bmp	n/a
110.97	2.023	baseline	1.0	1.0	0.336	redcross.bmp	n/a
112.993	2.022	baseline	1.0	1.0	0.487	redcross.bmp	n/a
115.015	2.023	baseline	n/a	1.0	n/a	blackcross.bmp	n/a
117.038	2.023	baseline	n/a	1.0	n/a	blackcross.bmp	n/a
119.061	2.022	baseline	n/a	1.0	n/a	blackcross.bmp	n/a
121.083	2.023	baseline	n/a	1.0	n/a	blackcross.bmp	n/a
123.106	2.023	baseline	1.0	1.0	0.497	redcross.bmp	n/a
125.129	2.022	baseline	n/a	1.0	n/a	blackcross.bmp	n/a
127.151	6.033	baseline	n/a	1.0	n/a	blackcross.bmp	n/a
133.184	1.806	no_response	n/a	1.0	n/a	r	TL
134.99	1.805	no_response	n/a	1.0	n/a	p	TR
136.795	2.023	2-back	0.0	1.0	0.666	x	BL
138.818	2.022	2-back	1.0	0.0	1.144	t	TR
140.84	2.023	2-back	0.0	1.0	1.047	g	TL
142.863	2.023	2-back	0.0	1.0	1.014	n	BL
144.886	2.023	2-back	1.0	0.0	0.809	z	TL
146.909	2.022	2-back	0.0	0.0	0.916	c	TR
148.931	2.023	2-back	0.0	1.0	1.173	v	BR
150.954	2.023	2-back	0.0	1.0	0.899	n	BL
152.977	2.022	2-back	1.0	1.0	0.653	g	BR
154.999	2.023	2-back	0.0	1.0	0.535	s	TL
157.022	2.023	2-back	0.0	1.0	0.931	v	TR
159.045	2.022	2-back	1.0	1.0	0.541	l	TL
161.067	2.023	2-back	1.0	1.0	0.6	f	TR
163.09	2.023	2-back	0.0	1.0	0.859	s	BR
165.113	2.023	2-back	0.0	1.0	0.582	c	TL
167.136	2.022	2-back	0.0	1.0	0.625	r	BL
169.158	2.023	2-back	1.0	1.0	0.379	s	TL
171.181	2.023	2-back	0.0	1.0	0.747	l	BR
173.204	2.022	2-back	0.0	1.0	0.687	z	BL
175.226	2.023	2-back	1.0	1.0	0.613	x	BR
177.249	2.023	2-back	0.0	1.0	0.508	f	TL
179.272	2.023	2-back	0.0	0.0	0.874	t	TL
181.295	2.022	2-back	0.0	1.0	0.531	x	TR
183.317	2.023	2-back	1.0	1.0	1.127	r	TL
185.34	2.023	2-back	0.0	1.0	0.565	l	BR
187.363	2.022	2-back	0.0	1.0	0.554	n	BL
189.385	2.023	2-back	1.0	1.0	0.478	s	BR
191.408	2.023	2-back	0.0	1.0	1.005	f	BR
193.431	2.023	2-back	0.0	0.0	n/a	g	BL
195.454	2.022	2-back	0.0	1.0	0.773	p	TR
197.476	2.023	2-back	1.0	1.0	0.503	v	BL
199.499	2.023	2-back	0.0	1.0	0.766	t	BR
201.522	2.022	2-back	1.0	1.0	0.693	t	BL
203.544	2.023	2-back	0.0	1.0	0.781	z	TL
205.567	2.023	2-back	0.0	1.0	0.867	f	TR
207.59	2.023	2-back	1.0	1.0	0.529	p	TL
209.613	2.022	2-back	1.0	1.0	0.701	g	TR
211.635	2.023	2-back	0.0	1.0	0.634	c	BL
213.658	2.023	2-back	1.0	1.0	0.679	r	TR
215.681	2.022	2-back	0.0	1.0	0.806	p	BR
217.703	2.023	2-back	0.0	1.0	0.811	x	TL
219.726	2.023	2-back	0.0	1.0	0.509	l	TR
221.749	2.022	2-back	0.0	1.0	0.591	z	BL
223.771	2.023	2-back	0.0	1.0	0.676	c	BR
225.794	2.023	2-back	1.0	1.0	0.351	n	BL
227.817	6.037	2-back	1.0	1.0	0.469	v	BR
233.854	2.022	baseline	1.0	1.0	0.326	redcross.bmp	n/a
235.876	2.023	baseline	n/a	1.0	n/a	blackcross.bmp	n/a
237.899	2.023	baseline	n/a	1.0	n/a	blackcross.bmp	n/a
239.922	2.022	baseline	n/a	1.0	n/a	blackcross.bmp	n/a
241.944	2.023	baseline	1.0	1.0	0.369	redcross.bmp	n/a
243.967	2.023	baseline	n/a	1.0	n/a	blackcross.bmp	n/a
245.99	2.023	baseline	n/a	1.0	n/a	blackcross.bmp	n/a
248.013	2.022	baseline	1.0	1.0	0.388	redcross.bmp	n/a
250.035	2.023	baseline	n/a	1.0	n/a	blackcross.bmp	n/a
252.058	2.023	baseline	n/a	1.0	n/a	blackcross.bmp	n/a
254.081	2.022	baseline	1.0	1.0	0.401	redcross.bmp	n/a
256.103	2.0	baseline	n/a	1.0	n/a	blackcross.bmp	n/a
