onset	duration	trial_type	correct_response	accuracy	response_time	stimulus	position
4.02	1.799	no_response	n/a	1.0	n/a	p	TR
5.819	2.0	1-back	0.0	1.0	0.581	f	BL
7.819	1.999	1-back	1.0	1.0	0.672	n	BL
9.818	1.999	1-back	0.0	1.0	0.694	x	TR
11.817	1.999	1-back	0.0	1.0	0.599	c	TL
13.816	2.0	1-back	1.0	1.0	0.61	p	TL
15.816	1.999	1-back	0.0	1.0	0.577	n	BL
17.815	1.999	1-back	0.0	1.0	0.585	c	TR
19.814	1.999	1-back	1.0	1.0	0.568	g	TR
21.813	1.999	1-back	0.0	1.0	0.616	n	TL
23.812	2.0	1-back	0.0	1.0	0.725	s	BR
25.812	1.999	1-back	0.0	1.0	0.627	x	BL
27.811	1.999	1-back	0.0	1.0	0.699	t	TL
29.81	1.999	1-back	1.0	1.0	0.591	g	TL
31.809	2.0	1-back	0.0	1.0	0.618	p	BR
33.809	1.999	1-back	0.0	1.0	0.57	c	TL
35.808	1.999	1-back	1.0	0.0	0.603	r	TL
37.807	1.999	1-back	0.0	1.0	0.555	t	BL
39.806	1.999	1-back	1.0	1.0	0.732	v	BL
41.805	2.0	1-back	0.0	1.0	0.605	g	BR
43.805	1.999	1-back	0.0	1.0	0.588	p	TL
45.804	1.999	1-back	0.0	1.0	0.66	x	BR
47.803	1.999	1-back	1.0	1.0	0.59	z	BR
49.802	2.0	1-back	0.0	1.0	0.528	l	TR
51.802	1.999	1-back	1.0	1.0	0.571	v	TR
53.801	1.999	1-back	0.0	1.0	0.537	n	BR
55.8	1.999	1-back	0.0	1.0	0.605	r	BL
57.799	1.999	1-back	1.0	1.0	0.606	s	BL
59.798	2.0	1-back	0.0	1.0	0.608	z	TR
61.798	1.999	1-back	0.0	1.0	0.576	l	TL
63.797	1.999	1-back	0.0	0.0	0.805	g	BR
65.796	1.999	1-back	1.0	1.0	0.619	f	BR
67.795	2.0	1-back	0.0	1.0	0.719	t	TR
69.795	1.999	1-back	0.0	1.0	0.671	z	TL
71.794	1.999	1-back	1.0	1.0	0.577	l	TL
73.793	1.999	1-back	0.0	1.0	0.568	f	BL
75.792	1.999	1-back	0.0	1.0	0.597	t	TR
77.791	2.0	1-back	1.0	1.0	0.594	r	TR
79.791	1.999	1-back	0.0	1.0	0.59	l	BR
81.79	1.999	1-back	1.0	1.0	0.64	z	BR
83.789	1.999	1-back	0.0	1.0	0.548	r	TR
85.788	2.0	1-back	1.0	1.0	0.67	v	TR
87.788	1.999	1-back	0.0	1.0	0.665	s	BL
89.787	1.999	1-back	1.0	1.0	0.603	f	BL
91.786	1.999	1-back	0.0	1.0	0.577	v	TL
93.785	1.999	1-back	0.0	1.0	0.672	x	BR
95.784	2.0	1-back	1.0	1.0	0.578	c	BR
97.784	6.037	1-back	0.0	1.0	0.667	s	BL
103.821	2.039	baseline	n/a	1.0	n/a	blackcross.bmp	n/a
105.86	2.04	baseline	n/a	1.0	n/a	blackcross.bmp	n/a
107.9	2.039	baseline	1.0	1.0	0.436	redcross.bmp	n/a
109.939	2.039	baseline	1.0	1.0	0.412	redcross.bmp	n/a
111.978	2.039	baseline	n/a	1.0	n/a	blackcross.bmp	n/a
114.017	2.039	baseline	n/a	1.0	n/a	blackcross.bmp	n/a
116.056	2.04	baseline	1.0	1.0	0.55	redcross.bmp	n/a
118.096	2.039	baseline	n/a	1.0	n/a	blackcross.bmp	n/a
120.135	2.039	baseline	n/a	1.0	n/a	blackcross.bmp	n/a
122.174	2.039	baseline	n/a	1.0	n/a	blackcross.bmp	n/a
124.213	2.039	baseline	1.0	1.0	0.494	redcross.bmp	n/a
126.252	6.038	baseline	n/a	1.0	n/a	blackcross.bmp	n/a
132.29	1.8	no_response	n/a	1.0	n/a	c	BL
134.09	1.799	no_response	n/a	1.0	n/a	l	TR
135.889	1.999	2-back	0.0	1.0	0.685	v	BR
137.888	1.999	2-back	1.0	1.0	0.745	p	TR
139.887	2.0	2-back	0.0	1.0	0.991	r	TL
141.887	1.999	2-back	0.0	1.0	0.935	t	BR
143.886	1.999	2-back	1.0	1.0	0.729	n	TL
145.885	1.999	2-back	0.0	1.0	0.874	s	TR
147.884	1.999	2-back	0.0	1.0	0.825	f	BL
149.883	2.0	2-back	1.0	1.0	0.815	x	TR
151.883	1.999	2-back	0.0	1.0	0.745	v	BR
153.882	1.999	2-back	0.0	1.0	0.736	p	BL
155.881	1.999	2-back	1.0	1.0	0.778	f	BR
157.88	2.0	2-back	0.0	1.0	0.877	n	TL
159.88	1.999	2-back	0.0	1.0	0.917	x	TR
161.879	1.999	2-back	1.0	1.0	0.829	t	TL
163.878	1.999	2-back	0.0	1.0	0.822	s	BL
165.877	1.999	2-back	0.0	1.0	1.042	l	TR
167.876	2.0	2-back	1.0	1.0	0.905	f	BL
169.876	1.999	2-back	1.0	1.0	1.006	c	TR
171.875	1.999	2-back	0.0	1.0	0.875	r	TL
173.874	1.999	2-back	1.0	1.0	0.736	g	TR
175.873	2.0	2-back	0.0	1.0	0.713	s	BL
177.873	1.999	2-back	0.0	1.0	0.866	r	BR
179.872	1.999	2-back	1.0	1.0	0.765	v	BL
181.871	1.999	2-back	0.0	1.0	1.058	p	BL
183.87	1.999	2-back	0.0	1.0	0.941	t	TL
185.869	2.0	2-back	1.0	1.0	0.931	x	BL
187.869	1.999	2-back	0.0	1.0	0.881	z	BR
189.868	1.999	2-back	0.0	1.0	0.928	t	TR
191.867	1.999	2-back	0.0	1.0	1.021	g	TL
193.866	2.0	2-back	1.0	1.0	0.94	c	TR
195.866	1.999	2-back	0.0	1.0	0.954	p	BL
197.865	1.999	2-back	0.0	1.0	0.947	s	BR
199.864	1.999	2-back	0.0	1.0	1.039	v	TL
201.863	2.0	2-back	1.0	1.0	0.917	n	BR
203.863	1.999	2-back	0.0	1.0	0.886	c	BL
205.862	1.999	2-back	0.0	1.0	0.898	l	TL
207.861	1.999	2-back	0.0	1.0	1.059	x	BR
209.86	1.999	2-back	1.0	1.0	0.989	z	TL
211.859	2.0	2-back	0.0	1.0	0.865	g	TR
213.859	1.999	2-back	0.0	1.0	0.866	f	BR
215.858	1.999	2-back	0.0	1.0	0.943	z	TL
217.857	1.999	2-back	1.0	1.0	0.911	l	BR
219.856	2.0	2-back	0.0	1.0	0.848	r	TR
221.856	1.999	2-back	1.0	1.0	0.792	z	BR
223.855	1.999	2-back	0.0	1.0	0.872	n	BL
225.854	6.037	2-back	1.0	1.0	0.84	g	BR
231.891	2.04	baseline	n/a	1.0	n/a	blackcross.bmp	n/a
233.931	2.039	baseline	n/a	1.0	n/a	blackcross.bmp	n/a
235.97	2.039	baseline	n/a	1.0	n/a	blackcross.bmp	n/a
238.009	2.039	baseline	1.0	1.0	0.491	redcross.bmp	n/a
240.048	2.039	baseline	n/a	1.0	n/a	blackcross.bmp	n/a
242.087	2.04	baseline	1.0	1.0	0.498	redcross.bmp	n/a
244.127	2.039	baseline	n/a	1.0	n/a	blackcross.bmp	n/a
246.166	2.039	baseline	n/a	1.0	n/a	blackcross.bmp	n/a
248.205	2.039	baseline	1.0	1.0	0.476	redcross.bmp	n/a
250.244	2.04	baseline	n/a	1.0	n/a	blackcross.bmp	n/a
252.284	2.039	baseline	n/a	1.0	n/a	blackcross.bmp	n/a
254.323	2.0	baseline	1.0	1.0	0.429	redcross.bmp	n/a
