onset	duration	trial_type	correct_response	accuracy	response_time	stimulus	position
4.02	1.8	no_response	n/a	1.0	n/a	z	TR
5.82	1.799	no_response	n/a	1.0	n/a	n	BL
7.619	2.012	2-back	0.0	1.0	0.709	g	BL
9.631	2.013	2-back	0.0	1.0	0.681	p	TR
11.644	2.013	2-back	1.0	1.0	0.639	g	TL
13.657	2.012	2-back	0.0	1.0	0.503	s	TL
15.669	2.013	2-back	0.0	1.0	0.474	f	BL
17.682	2.012	2-back	1.0	1.0	0.413	s	TR
19.694	2.013	2-back	1.0	0.0	0.586	f	TR
21.707	2.012	2-back	0.0	1.0	0.748	c	TL
23.719	2.013	2-back	0.0	1.0	0.426	x	BR
25.732	2.012	2-back	1.0	1.0	0.42	c	BL
27.744	2.013	2-back	0.0	1.0	0.54	l	TL
29.757	2.013	2-back	0.0	1.0	0.434	v	TL
31.77	2.012	2-back	0.0	1.0	0.537	p	TR
33.782	2.013	2-back	1.0	1.0	0.525	v	BR
35.795	2.012	2-back	0.0	1.0	0.415	c	TL
37.807	2.013	2-back	0.0	1.0	0.519	s	TL
39.82	2.012	2-back	0.0	0.0	0.58	t	BL
41.832	2.013	2-back	0.0	1.0	0.37	x	BR
43.845	2.012	2-back	1.0	1.0	0.494	t	TL
45.857	2.013	2-back	0.0	1.0	0.449	r	BL
47.87	2.013	2-back	0.0	1.0	0.416	n	BR
49.883	2.012	2-back	1.0	1.0	0.502	r	BR
51.895	2.013	2-back	0.0	1.0	0.4	l	TR
53.908	2.012	2-back	0.0	1.0	0.431	v	BL
55.92	2.013	2-back	1.0	1.0	0.579	l	BR
57.933	2.012	2-back	1.0	1.0	0.541	v	TR
59.945	2.013	2-back	0.0	1.0	0.423	s	BL
61.958	2.012	2-back	0.0	0.0	0.458	t	BR
63.97	2.013	2-back	0.0	1.0	0.418	c	BR
65.983	2.013	2-back	1.0	1.0	0.5	t	TR
67.996	2.012	2-back	0.0	1.0	0.392	n	TL
70.008	2.013	2-back	0.0	1.0	0.368	l	BR
72.021	2.012	2-back	1.0	1.0	0.575	n	TR
74.033	2.013	2-back	0.0	1.0	0.401	p	TL
76.046	2.012	2-back	0.0	1.0	0.438	x	BL
78.058	2.013	2-back	1.0	1.0	0.556	p	TR
80.071	2.013	2-back	0.0	1.0	0.415	f	BR
82.084	2.012	2-back	0.0	1.0	0.372	z	TL
84.096	2.013	2-back	1.0	0.0	0.361	f	TR
86.109	2.012	2-back	0.0	0.0	0.582	r	BL
88.121	2.013	2-back	0.0	1.0	0.567	x	BR
90.134	2.012	2-back	1.0	1.0	0.5	r	TR
92.146	2.013	2-back	0.0	1.0	0.437	g	BL
94.159	2.012	2-back	0.0	0.0	0.683	z	BL
96.171	2.013	2-back	1.0	1.0	0.539	g	TL
98.184	6.051	2-back	1.0	1.0	0.743	z	BR
104.235	2.039	baseline	n/a	1.0	n/a	blackcross.bmp	n/a
106.274	2.039	baseline	1.0	1.0	0.424	redcross.bmp	n/a
108.313	2.039	baseline	n/a	1.0	n/a	blackcross.bmp	n/a
110.352	2.04	baseline	n/a	1.0	n/a	blackcross.bmp	n/a
112.392	2.039	baseline	n/a	1.0	n/a	blackcross.bmp	n/a
114.431	2.039	baseline	n/a	1.0	n/a	blackcross.bmp	n/a
116.47	2.039	baseline	1.0	1.0	0.395	redcross.bmp	n/a
118.509	2.039	baseline	n/a	1.0	n/a	blackcross.bmp	n/a
120.548	2.04	baseline	n/a	1.0	n/a	blackcross.bmp	n/a
122.588	2.039	baseline	n/a	1.0	n/a	blackcross.bmp	n/a
124.627	2.039	baseline	1.0	1.0	0.369	redcross.bmp	n/a
126.666	6.038	baseline	1.0	1.0	0.553	redcross.bmp	n/a
132.704	1.799	no_response	n/a	1.0	n/a	l	TR
134.503	2.013	1-back	1.0	1.0	0.418	l	BL
136.516	2.012	1-back	0.0	1.0	0.47	s	TR
138.528	2.013	1-back	0.0	1.0	0.453	z	BL
140.541	2.013	1-back	0.0	1.0	0.372	t	TL
142.554	2.012	1-back	0.0	1.0	0.595	x	BR
144.566	2.013	1-back	1.0	1.0	0.535	x	TL
146.579	2.012	1-back	0.0	1.0	0.641	n	BL
148.591	2.013	1-back	0.0	1.0	0.413	s	TR
150.604	2.012	1-back	0.0	1.0	0.342	l	BR
152.616	2.013	1-back	1.0	1.0	0.432	l	TL
154.629	2.012	1-back	0.0	1.0	0.453	g	BR
156.641	2.013	1-back	1.0	1.0	0.494	g	TR
158.654	2.013	1-back	0.0	1.0	0.465	r	TL
160.667	2.012	1-back	1.0	1.0	0.447	r	TR
162.679	2.013	1-back	0.0	1.0	0.393	x	BL
164.692	2.012	1-back	0.0	1.0	0.331	p	TR
166.704	2.013	1-back	1.0	1.0	0.442	p	TL
168.717	2.012	1-back	0.0	1.0	0.33	c	TR
170.729	2.013	1-back	0.0	0.0	0.495	r	BL
172.742	2.012	1-back	0.0	1.0	0.8	f	TR
174.754	2.013	1-back	1.0	1.0	0.6	f	BR
176.767	2.013	1-back	1.0	1.0	0.451	f	BL
178.78	2.012	1-back	0.0	1.0	0.446	c	TL
180.792	2.013	1-back	0.0	1.0	0.411	z	BL
182.805	2.012	1-back	1.0	1.0	0.434	z	BR
184.817	2.013	1-back	0.0	1.0	0.44	v	BL
186.83	2.012	1-back	0.0	1.0	0.392	p	TL
188.842	2.013	1-back	1.0	1.0	0.432	p	TR
190.855	2.013	1-back	0.0	1.0	0.377	n	BR
192.868	2.012	1-back	0.0	1.0	0.384	s	BL
194.88	2.013	1-back	1.0	1.0	0.518	s	TL
196.893	2.012	1-back	0.0	1.0	0.41	z	TR
198.905	2.013	1-back	0.0	1.0	0.422	v	BL
200.918	2.012	1-back	0.0	1.0	0.384	t	BR
202.93	2.013	1-back	1.0	1.0	0.452	t	TL
204.943	2.012	1-back	1.0	1.0	0.476	t	BR
206.955	2.013	1-back	0.0	1.0	0.401	g	TL
208.968	2.013	1-back	0.0	1.0	0.367	x	BR
210.981	2.012	1-back	0.0	1.0	0.383	g	BL
212.993	2.013	1-back	0.0	1.0	0.633	c	TL
215.006	2.012	1-back	1.0	1.0	0.407	c	TR
217.018	2.013	1-back	0.0	1.0	0.369	v	BR
219.031	2.012	1-back	1.0	1.0	0.398	v	TL
221.043	2.013	1-back	0.0	1.0	0.445	f	TR
223.056	2.012	1-back	0.0	1.0	0.409	r	BR
225.068	2.013	1-back	0.0	1.0	0.406	n	BL
227.081	6.051	1-back	1.0	1.0	0.451	n	BR
233.132	2.039	baseline	n/a	1.0	n/a	blackcross.bmp	n/a
235.171	2.039	baseline	n/a	1.0	n/a	blackcross.bmp	n/a
237.21	2.039	baseline	1.0	1.0	0.523	redcross.bmp	n/a
239.249	2.04	baseline	n/a	1.0	n/a	blackcross.bmp	n/a
241.289	2.039	baseline	n/a	1.0	n/a	blackcross.bmp	n/a
243.328	2.039	baseline	1.0	1.0	0.338	redcross.bmp	n/a
245.367	2.039	baseline	n/a	1.0	n/a	blackcross.bmp	n/a
247.406	2.039	baseline	n/a	1.0	n/a	blackcross.bmp	n/a
249.445	2.04	baseline	n/a	1.0	n/a	blackcross.bmp	n/a
251.485	2.039	baseline	1.0	1.0	0.36	redcross.bmp	n/a
253.524	2.039	baseline	n/a	1.0	n/a	blackcross.bmp	n/a
255.563	2.0	baseline	1.0	1.0	0.404	redcross.bmp	n/a
