onset	duration	trial_type	correct_response	accuracy	response_time	stimulus	position
4.015	1.805	no_response	n/a	1.0	n/a	c	TR
5.82	2.006	1-back	0.0	1.0	0.546	g	BL
7.826	2.006	1-back	0.0	1.0	0.825	p	TR
9.832	2.006	1-back	1.0	1.0	0.744	p	BL
11.838	2.006	1-back	0.0	1.0	0.504	t	TL
13.844	2.006	1-back	0.0	1.0	0.582	v	BR
15.85	2.006	1-back	1.0	1.0	0.427	v	TL
17.856	2.007	1-back	0.0	1.0	0.496	s	BL
19.863	2.006	1-back	1.0	1.0	0.541	s	TR
21.869	2.006	1-back	0.0	1.0	0.493	x	BR
23.875	2.006	1-back	0.0	1.0	0.465	n	TL
25.881	2.006	1-back	1.0	1.0	0.441	n	BR
27.887	2.006	1-back	0.0	1.0	0.485	f	TR
29.893	2.006	1-back	1.0	1.0	0.489	f	TL
31.899	2.006	1-back	0.0	1.0	0.549	l	TR
33.905	2.006	1-back	0.0	1.0	0.452	r	BL
35.911	2.006	1-back	0.0	1.0	0.47	z	TR
37.917	2.006	1-back	1.0	1.0	0.478	z	TL
39.923	2.006	1-back	0.0	1.0	0.447	c	TR
41.929	2.006	1-back	1.0	1.0	0.54	c	BL
43.935	2.006	1-back	0.0	1.0	0.472	g	TR
45.941	2.006	1-back	1.0	1.0	0.643	g	BR
47.947	2.006	1-back	0.0	1.0	0.415	x	BL
49.953	2.006	1-back	0.0	1.0	0.468	t	TL
51.959	2.006	1-back	1.0	1.0	0.708	t	BL
53.965	2.006	1-back	0.0	1.0	0.439	r	BR
55.971	2.006	1-back	0.0	1.0	0.626	p	BL
57.977	2.006	1-back	0.0	1.0	0.495	v	TL
59.983	2.006	1-back	0.0	1.0	0.484	s	TR
61.989	2.006	1-back	1.0	1.0	0.465	s	BR
63.995	2.006	1-back	0.0	1.0	0.461	x	BL
66.001	2.006	1-back	1.0	1.0	0.585	x	TL
68.007	2.006	1-back	0.0	1.0	0.541	l	TR
70.013	2.006	1-back	1.0	1.0	0.584	l	BL
72.019	2.006	1-back	0.0	1.0	0.539	n	BR
74.025	2.006	1-back	1.0	1.0	0.592	n	TL
76.031	2.006	1-back	0.0	1.0	0.469	z	BR
78.037	2.006	1-back	1.0	1.0	0.481	z	TL
80.043	2.006	1-back	0.0	1.0	0.436	c	BR
82.049	2.006	1-back	0.0	1.0	0.567	g	BL
84.055	2.006	1-back	0.0	1.0	0.577	p	TL
86.061	2.006	1-back	0.0	1.0	0.57	t	TR
88.067	2.006	1-back	0.0	1.0	0.489	v	BR
90.073	2.006	1-back	0.0	1.0	0.527	f	TL
92.079	2.006	1-back	1.0	1.0	0.681	f	TR
94.085	2.006	1-back	0.0	1.0	0.435	l	BR
96.091	2.006	1-back	0.0	1.0	0.436	r	BL
98.097	6.021	1-back	1.0	1.0	0.464	r	BR
104.118	2.023	baseline	1.0	1.0	0.398	redcross.bmp	n/a
106.141	2.022	baseline	n/a	1.0	n/a	blackcross.bmp	n/a
108.163	2.023	baseline	1.0	1.0	0.291	redcross.bmp	n/a
110.186	2.039	baseline	n/a	1.0	n/a	blackcross.bmp	n/a
112.225	2.023	baseline	n/a	1.0	n/a	blackcross.bmp	n/a
114.248	2.023	baseline	1.0	1.0	0.338	redcross.bmp	n/a
116.271	2.022	baseline	n/a	1.0	n/a	blackcross.bmp	n/a
118.293	2.024	baseline	1.0	1.0	0.34	redcross.bmp	n/a
120.317	2.022	baseline	n/a	1.0	n/a	blackcross.bmp	n/a
122.339	2.023	baseline	n/a	1.0	n/a	blackcross.bmp	n/a
124.362	2.039	baseline	n/a	1.0	n/a	blackcross.bmp	n/a
126.401	6.033	baseline	n/a	1.0	n/a	blackcross.bmp	n/a
132.434	1.805	no_response	n/a	1.0	n/a	r	TR
134.239	1.806	no_response	n/a	1.0	n/a	p	BL
136.045	2.006	2-back	0.0	1.0	0.552	s	BL
138.051	2.006	2-back	1.0	1.0	0.779	p	TR
140.057	2.006	2-back	0.0	1.0	0.53	c	TL
142.063	2.006	2-back	0.0	1.0	0.735	g	TL
144.069	2.006	2-back	1.0	1.0	0.501	c	BL
146.075	2.006	2-back	0.0	0.0	n/a	f	TR
148.081	2.006	2-back	0.0	1.0	0.532	x	TR
150.087	2.006	2-back	0.0	1.0	0.698	z	TL
152.093	2.006	2-back	1.0	1.0	0.769	x	BR
154.099	2.006	2-back	0.0	1.0	0.925	g	BL
156.105	2.006	2-back	0.0	1.0	0.529	v	TL
158.111	2.006	2-back	1.0	1.0	0.393	g	TL
160.117	2.006	2-back	1.0	1.0	0.775	v	TR
162.123	2.006	2-back	0.0	1.0	0.517	z	BR
164.129	2.006	2-back	0.0	1.0	0.537	n	TL
166.135	2.006	2-back	1.0	1.0	0.377	z	TL
168.141	2.006	2-back	0.0	1.0	0.531	s	BL
170.147	2.006	2-back	1.0	1.0	0.876	z	BR
172.153	2.006	2-back	0.0	1.0	0.506	t	TL
174.159	2.006	2-back	0.0	1.0	0.501	f	BL
176.165	2.006	2-back	1.0	1.0	0.38	t	BR
178.171	2.006	2-back	0.0	1.0	0.533	r	BR
180.177	2.006	2-back	0.0	1.0	0.571	c	TR
182.183	2.006	2-back	1.0	1.0	0.718	r	BL
184.189	2.006	2-back	0.0	0.0	0.838	f	BR
186.195	2.006	2-back	0.0	0.0	0.686	t	TR
188.201	2.006	2-back	1.0	1.0	0.717	f	BL
190.207	2.006	2-back	0.0	1.0	0.476	c	BR
192.213	2.006	2-back	0.0	1.0	0.52	l	BR
194.219	2.006	2-back	0.0	1.0	0.549	n	TR
196.225	2.007	2-back	1.0	1.0	0.613	l	TL
198.232	2.006	2-back	0.0	1.0	0.475	s	BR
200.238	2.006	2-back	0.0	1.0	0.609	g	TR
202.244	2.006	2-back	1.0	1.0	0.463	s	TL
204.25	2.006	2-back	0.0	1.0	0.685	l	BL
206.256	2.006	2-back	0.0	1.0	0.562	r	TR
208.262	2.006	2-back	0.0	1.0	0.544	x	BR
210.268	2.006	2-back	0.0	1.0	0.649	t	TL
212.274	2.006	2-back	1.0	1.0	0.459	x	TR
214.28	2.006	2-back	0.0	1.0	0.504	n	BL
216.286	2.006	2-back	0.0	1.0	0.459	p	BR
218.292	2.006	2-back	1.0	1.0	0.33	n	TR
220.298	2.006	2-back	1.0	0.0	0.455	p	BL
222.304	2.006	2-back	0.0	1.0	0.579	v	BL
224.31	2.006	2-back	0.0	1.0	0.478	l	TL
226.316	6.02	2-back	1.0	1.0	0.363	v	BR
232.336	2.023	baseline	n/a	1.0	n/a	blackcross.bmp	n/a
234.359	2.022	baseline	1.0	1.0	0.433	redcross.bmp	n/a
236.381	2.023	baseline	n/a	1.0	n/a	blackcross.bmp	n/a
238.404	2.023	baseline	n/a	1.0	n/a	blackcross.bmp	n/a
240.427	2.023	baseline	n/a	1.0	n/a	blackcross.bmp	n/a
242.45	2.022	baseline	1.0	1.0	0.293	redcross.bmp	n/a
244.472	2.023	baseline	n/a	1.0	n/a	blackcross.bmp	n/a
246.495	2.023	baseline	n/a	1.0	n/a	blackcross.bmp	n/a
248.518	2.039	baseline	1.0	1.0	0.348	redcross.bmp	n/a
250.557	2.023	baseline	1.0	1.0	0.389	redcross.bmp	n/a
252.58	2.023	baseline	n/a	1.0	n/a	blackcross.bmp	n/a
254.603	2.0	baseline	n/a	1.0	n/a	blackcross.bmp	n/a
